Participant_Number,Trial_Number,Condition,FC_distal,FC_proximal,Target_Contrast,Correct_Response,Reaction_Time
23,0,Decrease,0.25,0.1,0.1,1,0.9879337239999586
23,1,Increase,0.1,0.25,0.1,1,0.8963077089993021
23,2,Decrease,0.25,0.1,0.07943282347242815,1,0.8330567780003548
23,3,Control,0.0,0.1,0.1,1,0.7241601529995023
23,4,Control,0.0,0.1,0.07943282347242815,1,0.6845400239999435
23,5,Equal,0.25,0.25,0.1,1,0.5756830910004282
23,6,Control,0.0,0.25,0.1,1,0.35292504500012
23,7,Control,0.0,0.25,0.07943282347242815,1,0.35607801500009373
23,8,Decrease,0.25,0.1,0.06309573444801932,1,0.35112690799996926
23,9,Increase,0.1,0.25,0.07943282347242815,1,0.34738857299998926
23,10,Control,0.0,0.1,0.06309573444801932,1,0.5906371499995657
23,11,Equal,0.1,0.1,0.1,1,0.5936403010000504
23,12,Control,0.0,0.25,0.06309573444801932,1,0.5890053729999636
23,13,Equal,0.25,0.25,0.07943282347242815,1,0.6265687320001234
23,14,Decrease,0.25,0.1,0.05011872336272722,1,0.39033667799958494
23,15,Equal,0.1,0.1,0.07943282347242815,1,0.43846788899918465
23,16,Increase,0.1,0.25,0.06309573444801932,1,0.4335108499999478
23,17,Control,0.0,0.1,0.05011872336272722,1,0.47489699899961124
23,18,Control,0.0,0.1,0.03981071705534971,1,0.20615546600038215
23,19,Control,0.0,0.25,0.05011872336272722,1,0.5752769239998088
23,20,Increase,0.1,0.25,0.05011872336272722,1,0.2825284179998562
23,21,Decrease,0.25,0.1,0.03981071705534971,1,0.23716090899961273
23,22,Increase_null,0.1,0.25,0.1,0,0.4008387579997361
23,23,Control,0.0,0.1,0.031622776601683784,1,0.3961033530003988
23,24,Control_null,0.0,0.25,0.1,1,0.7350202710003941
23,25,Equal,0.1,0.1,0.06309573444801932,1,0.5941016940005284
23,26,Decrease,0.25,0.1,0.031622776601683784,1,0.5206807039994601
23,27,Equal,0.25,0.25,0.06309573444801932,1,0.43722279900066496
23,28,Control,0.0,0.1,0.02511886431509579,1,0.46878478700000414
23,29,Equal,0.1,0.1,0.05011872336272722,1,0.25695541099958064
23,30,Control_null,0.0,0.1,0.1,0,0.559838801999831
23,31,Control,0.0,0.25,0.03981071705534971,1,0.4752681740001208
23,32,Control_null,0.0,0.25,0.07943282347242815,1,0.5723856929998874
23,33,Increase,0.1,0.25,0.03981071705534971,1,0.31171929700030887
23,34,Equal,0.1,0.1,0.03981071705534971,1,0.4521073220003018
23,35,Control,0.0,0.1,0.01995262314968879,1,0.4389798909996898
23,36,Control,0.0,0.25,0.031622776601683784,1,0.3780279459997473
23,37,Equal,0.25,0.25,0.05011872336272722,1,0.4465881000005538
23,38,Control,0.0,0.25,0.02511886431509579,1,0.44057181399966794
23,39,Equal,0.25,0.25,0.03981071705534971,1,0.4631485400004749
23,40,Increase,0.1,0.25,0.031622776601683784,1,0.38781850899977144
23,41,Equal,0.25,0.25,0.031622776601683784,1,0.31510573099967587
23,42,Increase_null,0.1,0.25,0.1,1,0.9585554719997162
23,43,Equal,0.1,0.1,0.031622776601683784,1,0.41572021399952064
23,44,Equal,0.1,0.1,0.02511886431509579,1,0.49079519800034177
23,45,Increase,0.1,0.25,0.02511886431509579,1,0.3960089780002818
23,46,Equal,0.1,0.1,0.01995262314968879,1,0.46319614500043826
23,47,Equal,0.1,0.1,0.015848931924611127,1,0.5953710060002777
23,48,Control,0.0,0.25,0.01995262314968879,1,0.5026600139999573
23,49,Control,0.0,0.25,0.015848931924611127,1,0.5857834879998336
23,50,Equal_null,0.25,0.25,0.1,0,99
23,51,Equal,0.1,0.1,0.012589254117941666,1,1.1269154589999744
23,52,Equal,0.1,0.1,0.009999999999999995,0,1.2290127000005668
23,53,Control,0.0,0.25,0.012589254117941666,0,0.9371266529997229
23,54,Increase,0.1,0.25,0.01995262314968879,1,1.1446526519994222
23,55,Control,0.0,0.25,0.015848931924611127,0,0.7238141190000533
23,56,Control,0.0,0.1,0.015848931924611127,0,0.7479676490002021
23,57,Control,0.0,0.1,0.01995262314968879,0,0.9044844439995359
23,58,Decrease,0.25,0.1,0.02511886431509579,1,0.6494561380004598
23,59,Decrease,0.25,0.1,0.01995262314968879,1,0.940614072000244
23,60,Increase,0.1,0.25,0.015848931924611127,0,0.8876280739996218
23,61,Equal,0.1,0.1,0.012589254117941666,0,0.7543084789995191
23,62,Control,0.0,0.25,0.01995262314968879,0,0.7670191979996162
23,63,Increase,0.1,0.25,0.01995262314968879,1,0.5543842150000273
23,64,Control,0.0,0.1,0.025118864315095794,1,0.5246695709993219
23,65,Increase,0.1,0.25,0.015848931924611127,1,0.47374577400023554
23,66,Control,0.0,0.1,0.01995262314968879,0,0.9407273500000883
23,67,Control_null,0.0,0.25,0.06309573444801932,1,1.1822280870001123
23,68,Equal,0.25,0.25,0.02511886431509579,1,0.5371986549998837
23,69,Decrease,0.25,0.1,0.015848931924611127,0,0.8735578579999128
23,70,Equal,0.1,0.1,0.015848931924611127,1,0.44447812300040823
23,71,Equal,0.25,0.25,0.01995262314968879,1,0.574769412999558
23,72,Equal,0.25,0.25,0.015848931924611127,0,0.4740361200001644
23,73,Equal,0.1,0.1,0.012589254117941666,0,0.6612010610006109
23,74,Control,0.0,0.1,0.025118864315095794,0,0.9213670219996857
23,75,Control_null,0.0,0.1,0.1,1,0.6378343169999425
23,76,Control,0.0,0.25,0.025118864315095794,1,1.121047035000629
23,77,Decrease,0.25,0.1,0.01995262314968879,1,0.6511551670000699
23,78,Equal,0.1,0.1,0.015848931924611127,1,0.4949963069993828
23,79,Control,0.0,0.1,0.031622776601683784,1,0.3542929320001349
23,80,Equal,0.1,0.1,0.012589254117941666,0,0.9464787380002235
23,81,Control,0.0,0.1,0.02511886431509579,1,0.5814627549998477
23,82,Control,0.0,0.25,0.01995262314968879,1,0.46150914700046997
23,83,Control,0.0,0.25,0.015848931924611127,1,1.0492646450002212
23,84,Control_null,0.0,0.1,0.07943282347242815,0,99
23,85,Increase,0.1,0.25,0.012589254117941666,0,99
23,86,Equal,0.1,0.1,0.015848931924611127,0,1.0267505060000985
23,87,Decrease,0.25,0.1,0.015848931924611127,1,0.6377227499997389
23,88,Control,0.0,0.25,0.012589254117941666,0,0.5939215180005704
23,89,Decrease,0.25,0.1,0.012589254117941666,0,0.5594016250006462
23,90,Control,0.0,0.1,0.01995262314968879,1,0.520348340000055
23,91,Control_null,0.0,0.25,0.05011872336272722,1,0.7406382469998789
23,92,Decrease,0.25,0.1,0.015848931924611127,0,1.2239032800007408
23,93,Control_null,0.0,0.25,0.03981071705534971,1,1.0076800289998573
23,94,Control,0.0,0.25,0.015848931924611127,0,0.6992204899997887
23,95,Decrease,0.25,0.1,0.01995262314968879,0,0.683142988000327
23,96,Equal,0.25,0.25,0.01995262314968879,0,0.702509093000117
23,97,Equal,0.1,0.1,0.01995262314968879,0,0.9444939180002621
23,98,Control,0.0,0.25,0.01995262314968879,0,0.7486333610004294
23,99,Control,0.0,0.1,0.015848931924611127,0,0.3359148970002934
23,100,Equal,0.1,0.1,0.025118864315095794,0,0.5392653749995588
23,101,Control,0.0,0.25,0.025118864315095794,1,0.7517571070002305
23,102,Equal,0.1,0.1,0.031622776601683784,1,0.6685642499996902
23,103,Equal,0.1,0.1,0.02511886431509579,1,0.4467673980007021
23,104,Increase,0.1,0.25,0.015848931924611127,1,0.5939316550002331
23,105,Decrease,0.25,0.1,0.025118864315095794,1,0.6452515250002762
23,106,Decrease_null,0.25,0.1,0.1,1,0.46126718899995467
23,107,Equal,0.1,0.1,0.01995262314968879,0,0.905371978000403
23,108,Equal,0.25,0.25,0.025118864315095794,1,0.49778443000013795
23,109,Increase,0.1,0.25,0.012589254117941666,0,0.6444078980002814
23,110,Equal,0.1,0.1,0.025118864315095794,1,0.5188685559996884
23,111,Increase,0.1,0.25,0.015848931924611127,0,1.1469138630000089
23,112,Equal,0.1,0.1,0.01995262314968879,0,0.8784088299998984
23,113,Decrease,0.25,0.1,0.01995262314968879,0,99
23,114,Increase,0.1,0.25,0.01995262314968879,0,0.5116258029993332
23,115,Equal,0.1,0.1,0.025118864315095794,1,0.6911519060004139
23,116,Control,0.0,0.25,0.01995262314968879,0,0.8444498479993854
23,117,Decrease_null,0.25,0.1,0.07943282347242815,1,0.5444095439997909
23,118,Control,0.0,0.1,0.01995262314968879,0,0.5235093130004316
23,119,Equal,0.25,0.25,0.01995262314968879,0,0.5085238240008039
23,120,Decrease_null,0.25,0.1,0.06309573444801932,1,0.7632905299997219
23,121,Control,0.0,0.25,0.025118864315095794,0,1.2145548950002194
23,122,Control,0.0,0.1,0.025118864315095794,1,0.6755235430000539
23,123,Equal,0.1,0.1,0.01995262314968879,1,0.5761420360004195
23,124,Equal,0.1,0.1,0.015848931924611127,1,0.8170862990000387
23,125,Increase,0.1,0.25,0.025118864315095794,1,0.5799858440004755
23,126,Control,0.0,0.25,0.031622776601683784,1,0.33259774900034245
23,127,Increase,0.1,0.25,0.01995262314968879,1,0.4324729299996761
23,128,Control,0.0,0.1,0.01995262314968879,1,0.7524707659995329
23,129,Decrease,0.25,0.1,0.025118864315095794,1,0.44407927300017036
23,130,Equal,0.1,0.1,0.012589254117941666,0,0.8552172709996739
23,131,Equal_null,0.1,0.1,0.1,1,0.7383285410005556
23,132,Control,0.0,0.1,0.015848931924611127,0,0.8136730259993783
23,133,Control,0.0,0.25,0.02511886431509579,1,0.44859859600001073
23,134,Control,0.0,0.25,0.01995262314968879,1,0.70807399000023
23,135,Control,0.0,0.1,0.01995262314968879,1,0.41634761699970113
23,136,Decrease,0.25,0.1,0.01995262314968879,1,0.5018599439999889
23,137,Equal_null,0.1,0.1,0.07943282347242815,1,0.6707563070003744
23,138,Control,0.0,0.25,0.015848931924611127,1,0.6417565199999444
23,139,Control,0.0,0.1,0.015848931924611127,0,0.857598238000719
23,140,Equal,0.1,0.1,0.015848931924611127,1,0.524823288999869
23,141,Equal,0.1,0.1,0.012589254117941666,0,1.1261355810001987
23,142,Equal,0.1,0.1,0.015848931924611127,1,0.6494611920006719
23,143,Increase,0.1,0.25,0.015848931924611127,0,0.6774938039998233
23,144,Control,0.0,0.1,0.01995262314968879,0,0.704699564999828
23,145,Control,0.0,0.25,0.012589254117941666,0,0.732070735999514
23,146,Equal,0.1,0.1,0.012589254117941666,0,0.2152693879997969
23,147,Decrease,0.25,0.1,0.015848931924611127,1,0.7383315590004713
23,148,Decrease,0.25,0.1,0.012589254117941666,0,0.66171599900008
23,149,Equal,0.1,0.1,0.015848931924611127,1,0.6664912530004585
23,150,Control,0.0,0.1,0.025118864315095794,1,0.80289257000004
23,151,Control,0.0,0.25,0.015848931924611127,0,0.5750917420000405
23,152,Increase,0.1,0.25,0.01995262314968879,0,0.8312643070003105
23,153,Increase,0.1,0.25,0.025118864315095794,1,1.0185062839991588
23,154,Decrease,0.25,0.1,0.015848931924611127,0,99
23,155,Decrease,0.25,0.1,0.01995262314968879,1,0.6786894240003676
23,156,Control,0.0,0.25,0.01995262314968879,0,0.4979396349999661
23,157,Equal,0.25,0.25,0.025118864315095794,1,0.630166604999431
23,158,Equal,0.1,0.1,0.012589254117941666,0,99
23,159,Equal,0.1,0.1,0.015848931924611127,1,0.7727325159994507
23,160,Control,0.0,0.1,0.01995262314968879,1,0.7038885470001333
23,161,Decrease,0.25,0.1,0.015848931924611127,1,0.34030406500005483
23,162,Decrease,0.25,0.1,0.012589254117941666,0,0.8563133019997622
23,163,Increase,0.1,0.25,0.01995262314968879,0,0.7602838320008232
23,164,Increase,0.1,0.25,0.025118864315095794,1,0.4995266770001763
23,165,Equal,0.25,0.25,0.01995262314968879,1,1.1248754400003236
23,166,Equal,0.25,0.25,0.015848931924611127,0,0.7119889909999984
23,167,Increase,0.1,0.25,0.01995262314968879,1,0.5130884489999517
23,168,Control,0.0,0.1,0.015848931924611127,1,0.5964690970004085
23,169,Equal,0.1,0.1,0.012589254117941666,0,0.5595756900002016
23,170,Control,0.0,0.1,0.012589254117941666,0,0.2826097970000774
23,171,Equal,0.1,0.1,0.015848931924611127,0,0.6540637950001837
23,172,Equal,0.1,0.1,0.01995262314968879,1,0.4660917960000006
23,173,Control,0.0,0.1,0.015848931924611127,1,0.5330555279997498
23,174,Equal,0.1,0.1,0.015848931924611127,0,0.4335380160000568
23,175,Decrease,0.25,0.1,0.015848931924611127,0,99
23,176,Equal,0.1,0.1,0.01995262314968879,0,0.502437581999402
23,177,Equal_null,0.25,0.25,0.1,1,0.5538227339993682
23,178,Decrease,0.25,0.1,0.01995262314968879,1,0.40211754600022687
23,179,Increase,0.1,0.25,0.015848931924611127,1,0.40423275800003466
23,180,Increase,0.1,0.25,0.012589254117941666,1,0.5894687700001668
23,181,Equal,0.25,0.25,0.01995262314968879,1,0.4723865559999467
23,182,Control,0.0,0.1,0.012589254117941666,0,0.5156892449995212
23,183,Equal,0.1,0.1,0.025118864315095794,1,0.5200718890000644
23,184,Control,0.0,0.1,0.015848931924611127,0,0.6113763290004499
23,185,Equal,0.1,0.1,0.01995262314968879,1,0.5982978999991246
23,186,Decrease_null,0.25,0.1,0.05011872336272722,1,0.6428218860000925
23,187,Equal,0.1,0.1,0.015848931924611127,1,0.7900805200006289
23,188,Control,0.0,0.1,0.01995262314968879,1,0.560990254999524
23,189,Equal_null,0.25,0.25,0.07943282347242815,1,0.5370464369998444
23,190,Increase,0.1,0.25,0.009999999999999995,1,0.7799182480002855
23,191,Increase,0.1,0.25,0.00794328234724281,0,99
23,192,Equal,0.1,0.1,0.012589254117941666,0,0.44077633999950194
23,193,Equal,0.25,0.25,0.015848931924611127,0,99
23,194,Decrease,0.25,0.1,0.015848931924611127,0,0.48601895899992087
23,195,Decrease,0.25,0.1,0.01995262314968879,1,0.44128122399979475
23,196,Equal,0.25,0.25,0.01995262314968879,1,0.7004775660006999
23,197,Equal,0.25,0.25,0.015848931924611127,1,0.4250511509999342
23,198,Equal,0.1,0.1,0.015848931924611127,1,1.099940539000272
23,199,Control,0.0,0.1,0.015848931924611127,0,99
23,200,Decrease,0.25,0.1,0.015848931924611127,1,0.44891788700078905
23,201,Equal,0.25,0.25,0.012589254117941666,1,0.6695123090003108
23,202,Equal,0.25,0.25,0.009999999999999995,0,0.7737325899997813
23,203,Decrease,0.25,0.1,0.012589254117941666,0,0.6644225379995987
23,204,Control,0.0,0.1,0.01995262314968879,1,0.4981856169997627
23,205,Control,0.0,0.25,0.025118864315095794,0,99
23,206,Decrease,0.25,0.1,0.015848931924611127,1,0.45536473899937846
23,207,Control_null,0.0,0.1,0.1,1,0.47454053399997065
23,208,Control,0.0,0.25,0.031622776601683784,1,0.48564999100017303
23,209,Control,0.0,0.25,0.02511886431509579,1,0.46483620399976644
23,210,Control_null,0.0,0.25,0.031622776601683784,1,0.8305466050005634
23,211,Equal,0.1,0.1,0.012589254117941666,0,0.8673600149995764
23,212,Control,0.0,0.1,0.015848931924611127,0,0.7103595660000792
23,213,Control,0.0,0.25,0.01995262314968879,0,0.5766672590007147
23,214,Decrease,0.25,0.1,0.012589254117941666,0,0.8838726789999782
23,215,Increase,0.1,0.25,0.009999999999999995,0,0.6120098729998062
23,216,Control_null,0.0,0.1,0.07943282347242815,1,0.41501595200043084
23,217,Increase,0.1,0.25,0.012589254117941666,0,0.4484949620000407
23,218,Control,0.0,0.25,0.025118864315095794,1,0.4198069049998594
23,219,Control,0.0,0.25,0.01995262314968879,0,0.7017289619998337
23,220,Control,0.0,0.25,0.025118864315095794,1,0.5689564720005365
23,221,Equal,0.25,0.25,0.012589254117941666,0,0.5562945570000011
23,222,Control,0.0,0.1,0.01995262314968879,0,0.5991953159991681
23,223,Equal,0.1,0.1,0.015848931924611127,1,0.42110737999973935
23,224,Decrease,0.25,0.1,0.015848931924611127,1,0.4011043190002965
23,225,Equal,0.1,0.1,0.012589254117941666,0,0.6917648609996832
23,226,Control,0.0,0.25,0.01995262314968879,0,0.7660219440003857
23,227,Increase_null,0.1,0.25,0.07943282347242815,1,0.6730172259995015
23,228,Increase,0.1,0.25,0.015848931924611127,1,0.5296776799996223
23,229,Control,0.0,0.1,0.025118864315095794,1,0.7085703769998872
23,230,Increase_null,0.1,0.25,0.06309573444801932,1,0.9561160619996372
23,231,Control_null,0.0,0.25,0.02511886431509579,1,0.7521087070008434
23,232,Control,0.0,0.1,0.01995262314968879,1,0.5863739409996924
23,233,Control,0.0,0.1,0.015848931924611127,1,0.46119771800022136
23,234,Equal,0.1,0.1,0.015848931924611127,1,0.47235960499983776
23,235,Control_null,0.0,0.1,0.06309573444801932,0,99
23,236,Control,0.0,0.25,0.025118864315095794,1,0.6733483799998794
23,237,Equal,0.1,0.1,0.012589254117941666,1,0.3729401569999027
23,238,Control,0.0,0.25,0.01995262314968879,0,0.3922004640007799
23,239,Equal,0.25,0.25,0.015848931924611127,0,99
23,240,Equal,0.25,0.25,0.01995262314968879,0,99
23,241,Equal,0.25,0.25,0.025118864315095794,0,99
23,242,Increase,0.1,0.25,0.012589254117941666,0,0.5580241010002283
23,243,Control_null,0.0,0.25,0.01995262314968879,1,0.4892507149997982
23,244,Control,0.0,0.25,0.025118864315095794,0,0.10917535800035694
23,245,Increase,0.1,0.25,0.015848931924611127,0,0.13645054299922776
23,246,Decrease,0.25,0.1,0.012589254117941666,1,0.8119092150000142
23,247,Increase,0.1,0.25,0.01995262314968879,1,0.7851899180004693
23,248,Increase_null,0.1,0.25,0.05011872336272722,1,0.8374645189996954
23,249,Decrease,0.25,0.1,0.009999999999999995,0,0.4940958689994659
23,250,Equal,0.1,0.1,0.009999999999999995,0,0.4651241500005199
23,251,Decrease,0.25,0.1,0.012589254117941666,1,0.9456613480006126
23,252,Increase,0.1,0.25,0.015848931924611127,1,0.5887222510000356
23,253,Control,0.0,0.1,0.012589254117941666,0,0.46991481100030796
23,254,Control,0.0,0.25,0.031622776601683784,1,0.8093280330003836
23,255,Control_null,0.0,0.25,0.015848931924611127,1,0.5805742090005879
23,256,Equal_null,0.1,0.1,0.06309573444801932,1,0.5834801129994958
23,257,Control_null,0.0,0.25,0.012589254117941666,1,0.4427520839999488
23,258,Decrease,0.25,0.1,0.009999999999999995,0,0.5099068680001437
23,259,Equal,0.1,0.1,0.012589254117941666,0,0.27400348500032123
23,260,Increase,0.1,0.25,0.012589254117941666,0,0.334790556000371
23,261,Control,0.0,0.25,0.02511886431509579,0,0.19468438900003093
23,262,Control,0.0,0.25,0.031622776601683784,1,0.3237127270003839
23,263,Control,0.0,0.1,0.015848931924611127,1,0.4068766129994401
23,264,Control,0.0,0.25,0.02511886431509579,1,0.44000237899945205
23,265,Increase,0.1,0.25,0.015848931924611127,1,0.43537027099955594
23,266,Equal,0.25,0.25,0.031622776601683784,1,0.3792899660002149
23,267,Control,0.0,0.25,0.01995262314968879,1,0.3664630940002098
23,268,Equal_null,0.25,0.25,0.06309573444801932,1,0.49875221000002057
23,269,Equal,0.25,0.25,0.02511886431509579,1,0.35802511399924697
23,270,Decrease,0.25,0.1,0.012589254117941666,1,0.4333073269999659
23,271,Decrease,0.25,0.1,0.009999999999999995,1,0.3325875780001297
23,272,Control,0.0,0.25,0.015848931924611127,1,0.5597774119996757
23,273,Increase,0.1,0.25,0.012589254117941666,1,0.44387110700063204
23,274,Control,0.0,0.25,0.012589254117941666,1,0.8573738149998462
23,275,Equal,0.1,0.1,0.015848931924611127,0,99
23,276,Increase,0.1,0.25,0.009999999999999995,0,0.8774412390002908
23,277,Equal,0.25,0.25,0.01995262314968879,1,0.5894521689997418
23,278,Increase,0.1,0.25,0.012589254117941666,0,0.6004422920004799
23,279,Increase,0.1,0.25,0.015848931924611127,0,99
23,280,Control,0.0,0.25,0.009999999999999995,0,99
23,281,Equal_null,0.1,0.1,0.05011872336272722,1,0.5514573610007574
23,282,Increase,0.1,0.25,0.01995262314968879,0,0.170359424999333
23,283,Decrease_null,0.25,0.1,0.03981071705534971,1,0.2616437650003718
23,284,Decrease,0.25,0.1,0.00794328234724281,0,99
23,285,Equal,0.25,0.25,0.015848931924611127,0,0.29225715099983063
23,286,Equal_null,0.25,0.25,0.05011872336272722,1,0.2657237470002656
23,287,Increase,0.1,0.25,0.025118864315095794,1,0.4856991560000097
23,288,Decrease,0.25,0.1,0.009999999999999995,0,0.5823669100000188
23,289,Control,0.0,0.1,0.012589254117941666,0,0.28156312499959313
23,290,Equal,0.25,0.25,0.01995262314968879,0,0.23492450200046733
23,291,Equal,0.1,0.1,0.01995262314968879,0,0.17418291000012687
23,292,Equal,0.25,0.25,0.025118864315095794,1,0.9832604940002057
23,293,Increase,0.1,0.25,0.01995262314968879,0,0.6344477239999833
23,294,Control,0.0,0.25,0.012589254117941666,0,0.4535512649999873
23,295,Decrease_null,0.25,0.1,0.031622776601683784,1,0.5925700329999017
23,296,Control,0.0,0.25,0.015848931924611127,0,99
23,297,Equal,0.25,0.25,0.01995262314968879,0,0.5273287810005058
23,298,Equal,0.1,0.1,0.025118864315095794,0,99
23,299,Equal,0.25,0.25,0.025118864315095794,1,0.38348403100008
23,300,Control,0.0,0.25,0.01995262314968879,0,0.45066801700068027
23,301,Increase_null,0.1,0.25,0.03981071705534971,0,99
23,302,Equal,0.1,0.1,0.031622776601683784,1,0.367022762000488
23,303,Equal,0.1,0.1,0.02511886431509579,1,0.5033449259999543
23,304,Equal,0.25,0.25,0.01995262314968879,1,0.4105639039999005
23,305,Equal,0.1,0.1,0.01995262314968879,1,0.4438408870000785
23,306,Increase,0.1,0.25,0.025118864315095794,1,0.4398583120000694
23,307,Equal,0.1,0.1,0.015848931924611127,0,0.763076614000056
23,308,Control,0.0,0.1,0.015848931924611127,1,0.47022496400040836
23,309,Decrease,0.25,0.1,0.012589254117941666,0,0.9058284169996114
23,310,Control,0.0,0.25,0.025118864315095794,0,99
23,311,Equal,0.25,0.25,0.015848931924611127,1,0.4076619629995548
23,312,Decrease,0.25,0.1,0.015848931924611127,0,0.7400346260001243
23,313,Control,0.0,0.1,0.012589254117941666,0,0.8736973520008178
23,314,Equal,0.25,0.25,0.012589254117941666,0,99
23,315,Increase,0.1,0.25,0.01995262314968879,0,0.5245087570001488
23,316,Increase,0.1,0.25,0.025118864315095794,1,0.6376300060001086
23,317,Equal,0.25,0.25,0.015848931924611127,0,0.5289749569992637
23,318,Equal,0.1,0.1,0.01995262314968879,0,0.48230480100028217
23,319,Equal,0.25,0.25,0.01995262314968879,0,0.48522918300022866
23,320,Decrease,0.25,0.1,0.01995262314968879,1,0.5774071739997453
23,321,Decrease,0.25,0.1,0.015848931924611127,0,0.5490372140002364
23,322,Increase,0.1,0.25,0.01995262314968879,1,0.6878664619998744
23,323,Decrease_null,0.25,0.1,0.02511886431509579,1,0.9231317060002766
23,324,Equal,0.1,0.1,0.025118864315095794,1,0.8212331069998982
23,325,Decrease,0.25,0.1,0.01995262314968879,1,0.7631054670000594
23,326,Decrease,0.25,0.1,0.015848931924611127,1,0.4149593809997896
23,327,Increase,0.1,0.25,0.015848931924611127,0,0.5828481110002031
23,328,Equal,0.25,0.25,0.025118864315095794,1,0.5218296709999777
23,329,Control,0.0,0.25,0.031622776601683784,1,0.5063078499997573
23,330,Control,0.0,0.25,0.02511886431509579,1,0.41346326300026703
23,331,Equal,0.25,0.25,0.01995262314968879,0,0.44657743600055255
23,332,Control,0.0,0.25,0.01995262314968879,0,0.7457069150004827
23,333,Increase,0.1,0.25,0.01995262314968879,0,0.22980656300023838
23,334,Equal_null,0.25,0.25,0.03981071705534971,1,0.7290807899998981
23,335,Equal,0.25,0.25,0.025118864315095794,0,0.6040565379998952
23,336,Control,0.0,0.25,0.025118864315095794,1,0.6074742480004716
23,337,Increase,0.1,0.25,0.025118864315095794,1,0.8979138139993665
23,338,Increase,0.1,0.25,0.01995262314968879,0,0.845949897000537
23,339,Increase_null,0.1,0.25,0.05011872336272721,0,99
23,340,Increase,0.1,0.25,0.025118864315095794,1,0.43403450200003135
23,341,Decrease_null,0.25,0.1,0.01995262314968879,1,0.6214800679999826
23,342,Decrease,0.25,0.1,0.012589254117941666,0,0.6297465600000578
23,343,Equal,0.25,0.25,0.031622776601683784,1,0.4887152049996075
23,344,Increase,0.1,0.25,0.01995262314968879,0,0.6670490649994463
23,345,Equal,0.1,0.1,0.01995262314968879,1,0.9258603039997979
23,346,Control,0.0,0.25,0.01995262314968879,0,0.5051547810007833
23,347,Control,0.0,0.1,0.015848931924611127,1,0.7728091510007289
23,348,Control_null,0.0,0.1,0.07943282347242814,1,0.45776099100021383
23,349,Equal,0.25,0.25,0.02511886431509579,0,0.47978631499972835
23,350,Equal,0.25,0.25,0.031622776601683784,0,99
23,351,Control,0.0,0.25,0.025118864315095794,0,0.9163794820005933
23,352,Control,0.0,0.25,0.031622776601683784,1,0.36846467000032135
23,353,Equal_null,0.1,0.1,0.03981071705534971,1,0.8885578319996057
23,354,Control,0.0,0.25,0.02511886431509579,1,0.7079753329999221
23,355,Equal,0.25,0.25,0.03981071705534971,1,0.4291501160005282
23,356,Equal,0.25,0.25,0.031622776601683784,1,0.3762931829996887
23,357,Control,0.0,0.25,0.01995262314968879,1,0.8825408760003484
23,358,Control,0.0,0.25,0.015848931924611127,1,0.7896810709999045
23,359,Increase,0.1,0.25,0.025118864315095794,1,0.552479370000583
23,360,Increase,0.1,0.25,0.01995262314968879,0,0.7109854509999423
23,361,Control,0.0,0.25,0.012589254117941666,0,0.6354256120002901
23,362,Control,0.0,0.25,0.015848931924611127,0,0.3357425730000614
23,363,Decrease,0.25,0.1,0.015848931924611127,1,0.507962181000039
23,364,Decrease,0.25,0.1,0.012589254117941666,0,0.4231451539999398
23,365,Decrease,0.25,0.1,0.015848931924611127,0,0.20078686899978493
23,366,Equal,0.25,0.25,0.02511886431509579,1,0.4922274809996452
23,367,Increase_null,0.1,0.25,0.0630957344480193,1,0.6293017850002798
23,368,Control,0.0,0.25,0.01995262314968879,1,0.5125750609995521
23,369,Increase_null,0.1,0.25,0.050118723362727206,1,0.5208370159998594
23,370,Equal,0.25,0.25,0.01995262314968879,1,0.5399284689992783
23,371,Decrease,0.25,0.1,0.01995262314968879,1,0.7819606840002962
23,372,Increase,0.1,0.25,0.025118864315095794,1,0.8017213270004504
23,373,Increase_null,0.1,0.25,0.039810717055349706,1,0.6364617219996944
23,374,Equal,0.1,0.1,0.015848931924611127,0,0.5446444449999035
23,375,Control,0.0,0.25,0.015848931924611127,0,0.5238481810001758
23,376,Control,0.0,0.25,0.01995262314968879,0,0.47259567999935825
23,377,Decrease,0.25,0.1,0.015848931924611127,1,0.5335849829998551
23,378,Increase,0.1,0.25,0.01995262314968879,1,0.5825378179997642
23,379,Equal,0.25,0.25,0.015848931924611127,0,1.2179646309996315
23,380,Decrease,0.25,0.1,0.012589254117941666,0,0.7208351829995081
23,381,Equal,0.25,0.25,0.01995262314968879,0,99
23,382,Equal,0.1,0.1,0.01995262314968879,1,0.8371921250000014
23,383,Control,0.0,0.1,0.012589254117941666,0,99
23,384,Decrease,0.25,0.1,0.015848931924611127,1,0.5155458409999483
23,385,Decrease,0.25,0.1,0.012589254117941666,0,0.9824446969996643
23,386,Equal,0.1,0.1,0.015848931924611127,0,99
23,387,Control_null,0.0,0.1,0.06309573444801932,1,0.49414722500023345
23,388,Equal,0.1,0.1,0.01995262314968879,0,0.513950431000012
23,389,Equal,0.1,0.1,0.025118864315095794,0,99
23,390,Decrease,0.25,0.1,0.015848931924611127,0,0.5232871930002148
23,391,Control,0.0,0.25,0.025118864315095794,1,0.6358808889999636
23,392,Decrease,0.25,0.1,0.01995262314968879,1,0.5910949500002971
23,393,Equal,0.1,0.1,0.031622776601683784,1,0.4393320250001125
23,394,Equal,0.25,0.25,0.025118864315095794,1,0.3867659260004075
23,395,Equal,0.25,0.25,0.01995262314968879,1,0.4425750860000335
23,396,Control,0.0,0.25,0.01995262314968879,0,0.6217989370006762
23,397,Equal,0.25,0.25,0.015848931924611127,0,99
23,398,Equal,0.25,0.25,0.01995262314968879,0,0.8213201240005219
23,399,Decrease,0.25,0.1,0.015848931924611127,0,0.808630615999391
23,400,Equal_null,0.1,0.1,0.031622776601683784,1,0.49963220300014655
23,401,Equal,0.1,0.1,0.02511886431509579,1,0.5040903540002546
23,402,Decrease,0.25,0.1,0.01995262314968879,0,0.6763428829999611
23,403,Decrease,0.25,0.1,0.025118864315095794,1,0.5696417689996451
23,404,Increase,0.1,0.25,0.015848931924611127,0,0.44240206999984366
23,405,Equal,0.1,0.1,0.01995262314968879,0,99
23,406,Equal_null,0.1,0.1,0.02511886431509579,1,0.5739018280000892
23,407,Increase,0.1,0.25,0.01995262314968879,1,0.6008098570000584
23,408,Equal,0.25,0.25,0.025118864315095794,1,0.5941240470001503
23,409,Control_null,0.0,0.25,0.009999999999999995,1,0.4374403360006909
23,410,Increase,0.1,0.25,0.015848931924611127,1,0.600497309000275
23,411,Decrease,0.25,0.1,0.01995262314968879,1,0.5557695659999808
23,412,Equal,0.25,0.25,0.01995262314968879,1,0.36688379299994267
23,413,Decrease,0.25,0.1,0.015848931924611127,1,0.38605876300061936
23,414,Control,0.0,0.25,0.025118864315095794,1,0.5425411109999914
23,415,Increase,0.1,0.25,0.012589254117941666,0,0.9785655220002809
23,416,Decrease,0.25,0.1,0.012589254117941666,1,0.7999678380001569
23,417,Equal,0.25,0.25,0.015848931924611127,0,0.5515231399995173
23,418,Equal,0.1,0.1,0.025118864315095794,1,0.6680310849997113
23,419,Increase,0.1,0.25,0.015848931924611127,1,0.403206468999997
23,420,Equal,0.25,0.25,0.01995262314968879,1,0.43039496800065535
23,421,Equal,0.25,0.25,0.015848931924611127,1,0.39924059999975725
23,422,Control,0.0,0.25,0.01995262314968879,0,0.5624064690000523
23,423,Control,0.0,0.25,0.025118864315095794,1,0.557839683999191
23,424,Increase,0.1,0.25,0.012589254117941666,0,1.0582051769997634
23,425,Increase,0.1,0.25,0.015848931924611127,1,0.6053363330001957
23,426,Control_null,0.0,0.25,0.00794328234724281,1,0.6166250440001022
23,427,Equal,0.1,0.1,0.01995262314968879,1,0.6756291629999396
23,428,Increase,0.1,0.25,0.012589254117941666,0,0.7370074520003982
23,429,Control,0.0,0.25,0.01995262314968879,1,0.6775210219993824
23,430,Equal,0.25,0.25,0.012589254117941666,0,0.8130874500002392
23,431,Equal,0.1,0.1,0.015848931924611127,0,99
23,432,Decrease,0.25,0.1,0.009999999999999995,0,99
23,433,Decrease,0.25,0.1,0.012589254117941666,0,99
23,434,Control,0.0,0.25,0.015848931924611127,0,0.23026085600031365
23,435,Control,0.0,0.1,0.015848931924611127,0,99
23,436,Increase,0.1,0.25,0.015848931924611127,1,0.5722622000002957
23,437,Control,0.0,0.1,0.01995262314968879,0,0.3112571150004442
23,438,Increase,0.1,0.25,0.012589254117941666,0,99
23,439,Equal,0.1,0.1,0.01995262314968879,0,99
23,440,Control,0.0,0.25,0.01995262314968879,0,99
23,441,Increase,0.1,0.25,0.015848931924611127,0,99
23,442,Equal,0.1,0.1,0.025118864315095794,1,0.6985644489996048
23,443,Control_null,0.0,0.25,0.0063095734448019285,1,0.5544514550001622
23,444,Control,0.0,0.25,0.025118864315095794,0,99
23,445,Control,0.0,0.25,0.031622776601683784,0,99
23,446,Equal,0.25,0.25,0.015848931924611127,0,0.5543546760000027
23,447,Increase,0.1,0.25,0.01995262314968879,0,0.4675429600001735
23,448,Control_null,0.0,0.25,0.005011872336272719,0,99
23,449,Increase,0.1,0.25,0.025118864315095794,1,0.7309217970005193
23,450,Equal,0.1,0.1,0.01995262314968879,1,0.9100697109997782
23,451,Increase,0.1,0.25,0.01995262314968879,0,0.6331097929996758
23,452,Equal,0.1,0.1,0.015848931924611127,1,0.7323224310002843
23,453,Increase,0.1,0.25,0.025118864315095794,1,0.5186617660001502
23,454,Increase_null,0.1,0.25,0.03162277660168378,0,99
23,455,Decrease,0.25,0.1,0.015848931924611127,1,0.5427719440003784
23,456,Increase,0.1,0.25,0.01995262314968879,0,99
23,457,Decrease,0.25,0.1,0.012589254117941666,0,99
23,458,Equal,0.25,0.25,0.01995262314968879,0,99
23,459,Decrease,0.25,0.1,0.015848931924611127,0,0.32656818400027987
23,460,Equal,0.25,0.25,0.025118864315095794,1,0.5127412680003545
23,461,Equal,0.1,0.1,0.012589254117941666,0,99
23,462,Increase,0.1,0.25,0.025118864315095794,0,99
23,463,Increase_null,0.1,0.25,0.039810717055349706,0,99
23,464,Decrease,0.25,0.1,0.01995262314968879,0,99
23,465,Equal,0.1,0.1,0.015848931924611127,0,0.5526890430001004
23,466,Equal_null,0.1,0.1,0.01995262314968879,1,0.49091492499974265
23,467,Equal,0.25,0.25,0.01995262314968879,0,99
23,468,Equal,0.1,0.1,0.01995262314968879,0,99
23,469,Increase,0.1,0.25,0.031622776601683784,1,0.4125840220003738
23,470,Control,0.0,0.1,0.025118864315095794,1,0.3915817019997121
23,471,Increase,0.1,0.25,0.02511886431509579,1,0.5120250310001211
23,472,Control,0.0,0.25,0.03981071705534971,1,0.5070579500006716
23,473,Equal,0.25,0.25,0.025118864315095794,1,0.38114234499971644
23,474,Control,0.0,0.25,0.031622776601683784,1,0.3683614920000764
23,475,Control,0.0,0.25,0.02511886431509579,0,99
23,476,Equal,0.1,0.1,0.025118864315095794,0,99
23,477,Control,0.0,0.25,0.031622776601683784,1,0.3140759169991725
23,478,Equal,0.1,0.1,0.031622776601683784,1,0.3350624869999592
23,479,Equal,0.1,0.1,0.02511886431509579,1,0.361388598999838
23,480,Increase,0.1,0.25,0.01995262314968879,0,0.9137158840003394
23,481,Equal,0.25,0.25,0.01995262314968879,0,0.8841338860001997
23,482,Decrease,0.25,0.1,0.025118864315095794,1,0.7679407539999374
23,483,Equal,0.1,0.1,0.01995262314968879,0,0.7689840240000194
23,484,Equal,0.1,0.1,0.025118864315095794,1,0.404385638000349
23,485,Control,0.0,0.1,0.01995262314968879,0,0.8204132240007311
23,486,Equal,0.25,0.25,0.025118864315095794,1,0.8879812140003196
23,487,Equal,0.25,0.25,0.01995262314968879,1,0.6655429910006205
23,488,Control,0.0,0.1,0.025118864315095794,1,0.5821129240002847
23,489,Equal,0.1,0.1,0.01995262314968879,1,0.5612549420002324
23,490,Equal,0.25,0.25,0.015848931924611127,0,99
23,491,Control,0.0,0.1,0.01995262314968879,1,0.46377027700054896
23,492,Increase,0.1,0.25,0.025118864315095794,1,0.4215311899997687
23,493,Equal,0.1,0.1,0.015848931924611127,1,0.32124573100009
23,494,Equal,0.25,0.25,0.01995262314968879,1,0.5152132339999298
23,495,Decrease,0.25,0.1,0.01995262314968879,1,0.5024334870004168
23,496,Control,0.0,0.25,0.02511886431509579,1,0.3505706530004318
23,497,Increase,0.1,0.25,0.01995262314968879,1,0.4816625200000999
23,498,Decrease,0.25,0.1,0.015848931924611127,0,0.6899879110005713
23,499,Equal,0.25,0.25,0.015848931924611127,0,0.7021502840007088
23,500,Increase,0.1,0.25,0.015848931924611127,0,99
23,501,Control,0.0,0.25,0.01995262314968879,0,99
23,502,Equal,0.1,0.1,0.012589254117941666,1,0.5425678350002272
23,503,Control,0.0,0.25,0.025118864315095794,0,0.585710274000121
23,504,Equal,0.25,0.25,0.01995262314968879,0,0.5421337700008735
23,505,Equal,0.25,0.25,0.025118864315095794,0,0.22635027899923443
23,506,Equal,0.25,0.25,0.031622776601683784,0,0.6317713660000663
23,507,Increase,0.1,0.25,0.01995262314968879,0,0.46359383299932233
23,508,Equal,0.25,0.25,0.03981071705534971,1,0.9309778770002595
23,509,Control,0.0,0.1,0.015848931924611127,1,0.5880454930002088
23,510,Control,0.0,0.1,0.012589254117941666,0,0.5031721240002298
23,511,Decrease,0.25,0.1,0.01995262314968879,1,0.4553761470006066
23,512,Increase,0.1,0.25,0.025118864315095794,1,0.6025375340004757
23,513,Equal,0.25,0.25,0.031622776601683784,1,0.4856109969996396
23,514,Decrease,0.25,0.1,0.015848931924611127,1,0.3840854899999613
23,515,Control,0.0,0.1,0.015848931924611127,1,0.8831969619996016
23,516,Control,0.0,0.1,0.012589254117941666,1,0.5432994469992991
23,517,Decrease,0.25,0.1,0.012589254117941666,1,0.8746855760000471
23,518,Control,0.0,0.1,0.009999999999999995,0,99
23,519,Control,0.0,0.1,0.012589254117941666,0,99
23,520,Equal,0.25,0.25,0.02511886431509579,1,0.4761285240001598
23,521,Equal,0.1,0.1,0.009999999999999995,0,99
23,522,Equal_null,0.25,0.25,0.031622776601683784,0,99
23,523,Decrease,0.25,0.1,0.009999999999999995,0,0.4996130400004404
23,524,Control,0.0,0.1,0.015848931924611127,0,0.731941803999689
23,525,Control,0.0,0.25,0.031622776601683784,1,0.4788857839994307
23,526,Increase,0.1,0.25,0.01995262314968879,1,0.3621778770002493
23,527,Control_null,0.0,0.1,0.05011872336272722,0,99
23,528,Control,0.0,0.1,0.01995262314968879,0,0.5120640549994278
23,529,Increase_null,0.1,0.25,0.050118723362727206,1,0.5729378329997417
23,530,Equal,0.25,0.25,0.01995262314968879,1,0.5840314520000902
23,531,Equal,0.1,0.1,0.012589254117941666,1,0.5006122349996076
23,532,Control,0.0,0.25,0.02511886431509579,1,0.3620190029996593
23,533,Equal,0.25,0.25,0.015848931924611127,0,0.57053527700009
23,534,Equal,0.25,0.25,0.01995262314968879,1,0.5417779539993717
23,535,Equal,0.25,0.25,0.015848931924611127,1,0.4059230259999822
23,536,Decrease_null,0.25,0.1,0.015848931924611127,0,99
23,537,Decrease,0.25,0.1,0.012589254117941666,0,0.4572589760000483
23,538,Equal,0.1,0.1,0.009999999999999995,0,99
23,539,Equal,0.25,0.25,0.012589254117941666,1,0.43172601599962945
23,540,Decrease,0.25,0.1,0.015848931924611127,1,0.49903669099967374
23,541,Control,0.0,0.1,0.025118864315095794,0,0.9178818000000319
23,542,Decrease,0.25,0.1,0.012589254117941666,0,99
23,543,Control,0.0,0.1,0.031622776601683784,0,99
23,544,Control,0.0,0.1,0.03981071705534971,1,0.8338290149995373
23,545,Equal,0.1,0.1,0.012589254117941666,0,99
23,546,Equal,0.1,0.1,0.015848931924611127,0,0.9988130419997105
23,547,Control,0.0,0.25,0.01995262314968879,0,99
23,548,Control,0.0,0.1,0.031622776601683784,1,0.45135805900008563
23,549,Equal,0.25,0.25,0.009999999999999995,0,0.6784266579998075
23,550,Increase,0.1,0.25,0.015848931924611127,0,0.6944346250002127
23,551,Increase,0.1,0.25,0.01995262314968879,1,0.6978297770001518
23,552,Control,0.0,0.25,0.025118864315095794,1,0.7971619629997804
23,553,Control,0.0,0.25,0.01995262314968879,0,0.6490879619996122
23,554,Equal,0.25,0.25,0.012589254117941666,0,99
23,555,Equal_null,0.1,0.1,0.015848931924611127,0,99
23,556,Equal,0.25,0.25,0.015848931924611127,0,99
23,557,Control,0.0,0.1,0.02511886431509579,0,99
23,558,Equal,0.25,0.25,0.01995262314968879,1,0.41298376800023107
23,559,Equal,0.1,0.1,0.01995262314968879,1,0.46814627399999154
23,560,Equal,0.25,0.25,0.015848931924611127,0,0.6164950709999175
23,561,Equal,0.1,0.1,0.015848931924611127,0,1.2809894860001805
23,562,Control,0.0,0.1,0.031622776601683784,1,0.6200630149996869
23,563,Increase,0.1,0.25,0.015848931924611127,1,0.46122917299999244
23,564,Equal_null,0.25,0.25,0.03981071705534971,0,99
23,565,Equal,0.25,0.25,0.01995262314968879,0,99
23,566,Equal,0.25,0.25,0.025118864315095794,0,99
23,567,Increase,0.1,0.25,0.012589254117941666,0,99
23,568,Decrease,0.25,0.1,0.015848931924611127,0,99
23,569,Equal,0.25,0.25,0.031622776601683784,1,0.4494488109994563
23,570,Equal_null,0.1,0.1,0.01995262314968879,1,0.6939925409997159
23,571,Equal,0.1,0.1,0.01995262314968879,1,0.5135927250003078
23,572,Control,0.0,0.1,0.02511886431509579,1,0.43401109899969015
23,573,Equal,0.25,0.25,0.02511886431509579,0,99
23,574,Equal,0.1,0.1,0.015848931924611127,1,0.4941839719995187
23,575,Equal,0.1,0.1,0.012589254117941666,0,0.6013662920004208
23,576,Decrease,0.25,0.1,0.01995262314968879,0,99
23,577,Equal,0.1,0.1,0.015848931924611127,1,0.48581122499945195
23,578,Equal,0.1,0.1,0.012589254117941666,0,0.5211695019997933
23,579,Equal,0.1,0.1,0.015848931924611127,0,99
23,580,Decrease,0.25,0.1,0.025118864315095794,1,0.5193792270001722
23,581,Equal,0.1,0.1,0.01995262314968879,0,0.8185310070002743
23,582,Equal,0.1,0.1,0.025118864315095794,0,99
23,583,Decrease,0.25,0.1,0.01995262314968879,1,0.7704138330000205
23,584,Equal_null,0.25,0.25,0.05011872336272721,0,99
23,585,Control,0.0,0.1,0.01995262314968879,0,99
23,586,Equal,0.25,0.25,0.031622776601683784,1,0.44953739199991105
23,587,Control,0.0,0.25,0.025118864315095794,0,99
23,588,Equal,0.25,0.25,0.02511886431509579,0,99
23,589,Control,0.0,0.25,0.031622776601683784,1,0.2951936729996305
23,590,Control,0.0,0.1,0.025118864315095794,0,99
23,591,Increase_null,0.1,0.25,0.039810717055349706,1,0.6131571269997949
23,592,Control,0.0,0.25,0.02511886431509579,0,99
23,593,Control,0.0,0.1,0.031622776601683784,1,0.5167061479996846
23,594,Control,0.0,0.1,0.02511886431509579,1,0.3999960500004818
23,595,Control,0.0,0.25,0.031622776601683784,1,0.4271537550002904
23,596,Decrease,0.25,0.1,0.015848931924611127,1,0.4933242319993951
23,597,Control,0.0,0.1,0.01995262314968879,0,0.3871211340001537
23,598,Control,0.0,0.25,0.02511886431509579,1,0.721891606999634
23,599,Equal_null,0.1,0.1,0.015848931924611127,1,0.4458188529997642
23,600,Decrease,0.25,0.1,0.012589254117941666,0,0.7161502489998384
23,601,Control,0.0,0.1,0.025118864315095794,1,0.5114030750000893
23,602,Increase,0.1,0.25,0.015848931924611127,0,0.3515897200004474
23,603,Increase,0.1,0.25,0.01995262314968879,1,0.6910807940002996
23,604,Equal,0.25,0.25,0.031622776601683784,1,0.4050665479999225
23,605,Equal,0.25,0.25,0.02511886431509579,1,0.3040844619999916
23,606,Control,0.0,0.25,0.01995262314968879,1,0.34736989100019855
23,607,Control,0.0,0.1,0.01995262314968879,1,0.4463534090000394
23,608,Control,0.0,0.25,0.015848931924611127,1,0.49858309299997927
23,609,Decrease,0.25,0.1,0.015848931924611127,1,0.3106895179998901
23,610,Equal,0.25,0.25,0.01995262314968879,1,0.3383557830002246
23,611,Equal_null,0.1,0.1,0.012589254117941666,1,0.5488569299996016
23,612,Equal,0.25,0.25,0.015848931924611127,0,0.5694779650002602
23,613,Control,0.0,0.1,0.015848931924611127,0,0.6013966709997476
23,614,Increase,0.1,0.25,0.015848931924611127,1,0.92455989499922
23,615,Equal,0.1,0.1,0.031622776601683784,1,0.5900856879998173
23,616,Decrease,0.25,0.1,0.012589254117941666,1,0.8812871890004317
23,617,Increase,0.1,0.25,0.012589254117941666,0,0.29927903000043443
23,618,Equal,0.1,0.1,0.02511886431509579,1,0.4545490170003177
23,619,Control,0.0,0.1,0.01995262314968879,1,1.0095090660006463
23,620,Equal,0.1,0.1,0.01995262314968879,1,0.4050577489997522
23,621,Control,0.0,0.1,0.015848931924611127,1,0.5050525590004327
23,622,Decrease,0.25,0.1,0.009999999999999995,0,0.42853558200022235
23,623,Decrease,0.25,0.1,0.012589254117941666,0,0.36008543699972506
23,624,Decrease,0.25,0.1,0.015848931924611127,1,0.38755456099988805
23,625,Increase,0.1,0.25,0.015848931924611127,0,99
23,626,Equal,0.1,0.1,0.015848931924611127,0,99
23,627,Control,0.0,0.1,0.012589254117941666,0,0.4191985059997023
23,628,Control,0.0,0.25,0.012589254117941666,0,0.2193187829998351
23,629,Decrease,0.25,0.1,0.012589254117941666,0,0.3586045929996544
23,630,Equal_null,0.25,0.25,0.0630957344480193,1,0.4808016859997224
23,631,Decrease,0.25,0.1,0.015848931924611127,0,0.6680857579995063
23,632,Decrease,0.25,0.1,0.01995262314968879,1,0.7671760590001213
23,633,Equal,0.25,0.25,0.01995262314968879,1,0.4905916689995138
23,634,Increase,0.1,0.25,0.01995262314968879,0,0.7504483820002861
23,635,Decrease,0.25,0.1,0.015848931924611127,0,0.5223664499999359
23,636,Equal,0.25,0.25,0.015848931924611127,0,99
23,637,Increase,0.1,0.25,0.025118864315095794,0,0.42499873300039326
23,638,Increase,0.1,0.25,0.031622776601683784,0,99
23,639,Decrease,0.25,0.1,0.01995262314968879,1,0.8775018509995789
23,640,Increase,0.1,0.25,0.03981071705534971,0,99
23,641,Equal,0.25,0.25,0.01995262314968879,0,0.4645736489992487
23,642,Control_null,0.0,0.1,0.06309573444801932,1,1.1161496419999821
23,643,Control,0.0,0.1,0.015848931924611127,0,99
23,644,Control_null,0.0,0.1,0.05011872336272722,1,0.2503569550008251
23,645,Decrease,0.25,0.1,0.015848931924611127,1,0.42968395600018994
23,646,Increase,0.1,0.25,0.05011872336272721,1,0.4328074679997371
23,647,Equal_null,0.25,0.25,0.050118723362727206,1,0.59760036499938
23,648,Control,0.0,0.25,0.015848931924611127,0,99
23,649,Equal,0.25,0.25,0.025118864315095794,1,0.5643144349996874
23,650,Equal,0.25,0.25,0.01995262314968879,0,99
23,651,Equal,0.1,0.1,0.01995262314968879,0,99
23,652,Equal,0.25,0.25,0.025118864315095794,0,99
23,653,Increase,0.1,0.25,0.03981071705534971,0,99
23,654,Increase,0.1,0.25,0.05011872336272721,1,0.527343206000296
23,655,Decrease,0.25,0.1,0.012589254117941666,0,0.7862031829999978
23,656,Equal,0.1,0.1,0.025118864315095794,1,0.6378403790004086
23,657,Equal_null,0.1,0.1,0.009999999999999995,1,0.5767159540000648
23,658,Equal,0.1,0.1,0.01995262314968879,0,1.1319128969998928
23,659,Control_null,0.0,0.1,0.03981071705534971,1,0.7432874679998349
23,660,Control,0.0,0.25,0.01995262314968879,0,99
23,661,Control,0.0,0.1,0.01995262314968879,0,99
23,662,Control,0.0,0.1,0.025118864315095794,1,0.5619932220006376
23,663,Increase,0.1,0.25,0.03981071705534971,1,0.3330705489997854
23,664,Control,0.0,0.1,0.01995262314968879,1,1.136212878999686
23,665,Control,0.0,0.25,0.025118864315095794,1,0.5610724850002953
23,666,Decrease,0.25,0.1,0.015848931924611127,1,0.4044480249995104
23,667,Equal,0.25,0.25,0.031622776601683784,1,0.4928075070001796
23,668,Decrease,0.25,0.1,0.012589254117941666,1,0.6558131609999691
23,669,Decrease,0.25,0.1,0.009999999999999995,0,99
23,670,Increase,0.1,0.25,0.031622776601683784,1,0.48586992400032614
23,671,Control,0.0,0.25,0.01995262314968879,0,0.5374124460004168
23,672,Control,0.0,0.25,0.025118864315095794,0,99
23,673,Decrease_null,0.25,0.1,0.01995262314968879,0,99
23,674,Increase,0.1,0.25,0.02511886431509579,0,0.7269057260000409
23,675,Increase,0.1,0.25,0.031622776601683784,1,0.395510278999609
23,676,Equal,0.25,0.25,0.02511886431509579,1,0.5404003789999479
23,677,Decrease,0.25,0.1,0.012589254117941666,0,99
23,678,Equal_null,0.1,0.1,0.00794328234724281,1,0.45707004999985656
23,679,Control,0.0,0.1,0.015848931924611127,0,99
23,680,Decrease,0.25,0.1,0.015848931924611127,1,0.3160841179997078
23,681,Control,0.0,0.25,0.031622776601683784,1,0.4712503339997056
23,682,Control_null,0.0,0.1,0.031622776601683784,1,0.5225943340001322
23,683,Equal,0.25,0.25,0.01995262314968879,1,0.35782581500006927
23,684,Decrease,0.25,0.1,0.012589254117941666,0,0.7288763449996623
23,685,Equal_null,0.25,0.25,0.039810717055349706,1,0.8360148380006649
23,686,Equal,0.1,0.1,0.025118864315095794,1,0.46452307800063863
23,687,Increase,0.1,0.25,0.02511886431509579,1,0.39800221000041347
23,688,Equal,0.1,0.1,0.01995262314968879,1,0.5539483379998273
23,689,Increase,0.1,0.25,0.01995262314968879,1,0.29059820200018294
23,690,Decrease,0.25,0.1,0.015848931924611127,0,0.5258400829998209
23,691,Increase,0.1,0.25,0.015848931924611127,0,0.6629813379995539
23,692,Decrease,0.25,0.1,0.01995262314968879,0,99
23,693,Decrease,0.25,0.1,0.025118864315095794,1,0.47458199599986983
23,694,Equal,0.1,0.1,0.015848931924611127,1,0.3508558869998524
23,695,Equal,0.1,0.1,0.012589254117941666,1,0.5217700560006051
23,696,Equal,0.1,0.1,0.009999999999999995,1,0.46150971699989896
23,697,Decrease,0.25,0.1,0.01995262314968879,1,0.47197036299985484
23,698,Increase,0.1,0.25,0.01995262314968879,0,0.5394283819996417
23,699,Control,0.0,0.25,0.02511886431509579,0,0.4640291770001568
23,700,Equal,0.25,0.25,0.015848931924611127,1,0.6286392499996509
23,701,Increase,0.1,0.25,0.025118864315095794,1,0.38548110600004293
23,702,Increase,0.1,0.25,0.01995262314968879,1,0.3861886019994927
23,703,Control_null,0.0,0.1,0.02511886431509579,1,0.3892923070006873
23,704,Control,0.0,0.1,0.01995262314968879,0,0.6215607539998018
23,705,Equal,0.25,0.25,0.012589254117941666,0,0.5298946539996905
23,706,Increase,0.1,0.25,0.015848931924611127,0,0.4896429440004795
23,707,Equal,0.1,0.1,0.00794328234724281,0,99
23,708,Decrease_null,0.25,0.1,0.025118864315095794,1,0.47344300799977646
23,709,Equal,0.25,0.25,0.015848931924611127,0,99
23,710,Control,0.0,0.25,0.031622776601683784,1,0.5518927169996459
23,711,Equal,0.25,0.25,0.01995262314968879,1,0.40281053600028827
23,712,Increase,0.1,0.25,0.01995262314968879,1,0.4714412369994534
23,713,Control,0.0,0.1,0.025118864315095794,1,0.6274666369999977
23,714,Equal,0.1,0.1,0.009999999999999995,0,99
23,715,Control,0.0,0.1,0.01995262314968879,0,99
23,716,Equal,0.1,0.1,0.012589254117941666,0,0.7091979219994755
23,717,Equal,0.1,0.1,0.015848931924611127,1,0.6769896670002709
23,718,Equal,0.25,0.25,0.015848931924611127,0,0.5204308969996418
23,719,Equal,0.25,0.25,0.01995262314968879,0,99
23,720,Equal,0.25,0.25,0.025118864315095794,0,0.6983497410001291
23,721,Control,0.0,0.25,0.02511886431509579,0,0.5029029190000074
23,722,Equal,0.25,0.25,0.031622776601683784,1,0.4101817500004472
23,723,Increase,0.1,0.25,0.015848931924611127,0,0.4772422320002079
23,724,Equal_null,0.25,0.25,0.03162277660168378,1,0.408565845999874
23,725,Decrease_null,0.25,0.1,0.01995262314968879,0,99
23,726,Control,0.0,0.1,0.025118864315095794,1,0.46247657499952766
23,727,Increase,0.1,0.25,0.01995262314968879,0,99
23,728,Decrease,0.25,0.1,0.015848931924611127,0,99
23,729,Equal,0.25,0.25,0.02511886431509579,0,99
23,730,Equal,0.1,0.1,0.012589254117941666,0,99
23,731,Decrease,0.25,0.1,0.01995262314968879,0,99
23,732,Increase,0.1,0.25,0.025118864315095794,0,99
23,733,Control,0.0,0.1,0.01995262314968879,0,99
23,734,Control,0.0,0.25,0.031622776601683784,0,99
23,735,Increase,0.1,0.25,0.031622776601683784,1,0.4227049419996547
23,736,Decrease,0.25,0.1,0.025118864315095794,1,0.4578149109993319
23,737,Decrease_null,0.25,0.1,0.025118864315095794,1,0.5734538650003742
23,738,Decrease,0.25,0.1,0.01995262314968879,0,99
23,739,Increase,0.1,0.25,0.02511886431509579,1,0.49924563900003704
23,740,Equal,0.25,0.25,0.031622776601683784,0,99
23,741,Increase,0.1,0.25,0.01995262314968879,0,99
23,742,Control,0.0,0.1,0.025118864315095794,0,99
23,743,Control,0.0,0.1,0.031622776601683784,0,99
23,744,Increase,0.1,0.25,0.025118864315095794,1,0.4221793219994652
23,745,Control,0.0,0.1,0.03981071705534971,1,0.3134302039998147
23,746,Control,0.0,0.25,0.03981071705534971,0,99
23,747,Decrease,0.25,0.1,0.025118864315095794,1,0.3508002300004591
23,748,Decrease,0.25,0.1,0.01995262314968879,0,99
23,749,Decrease_null,0.25,0.1,0.01995262314968879,1,0.7180950279998797
23,750,Increase,0.1,0.25,0.01995262314968879,0,0.6892553249999764
23,751,Equal_null,0.25,0.25,0.025118864315095787,1,0.5738394830004836
23,752,Equal,0.25,0.25,0.03981071705534971,1,0.4568016230005014
23,753,Equal,0.1,0.1,0.015848931924611127,1,0.4109447110004112
23,754,Decrease,0.25,0.1,0.025118864315095794,1,0.351116290000391
23,755,Control,0.0,0.1,0.031622776601683784,1,0.30325230000016745
23,756,Control,0.0,0.1,0.02511886431509579,1,0.7705578539998896
23,757,Decrease,0.25,0.1,0.01995262314968879,1,0.3315764310000304
23,758,Control,0.0,0.25,0.05011872336272721,0,99
23,759,Control,0.0,0.25,0.0630957344480193,1,0.4731893730004231
23,760,Equal,0.1,0.1,0.012589254117941666,1,0.3960368060006658
23,761,Increase,0.1,0.25,0.025118864315095794,1,0.67917394899996
23,762,Equal,0.25,0.25,0.031622776601683784,1,0.42650161199981085
23,763,Control,0.0,0.1,0.01995262314968879,1,0.9747642470001665
23,764,Equal,0.1,0.1,0.009999999999999995,0,0.9645461990003241
23,765,Equal,0.25,0.25,0.02511886431509579,0,0.7671939430001657
23,766,Equal,0.25,0.25,0.031622776601683784,0,99
23,767,Equal,0.25,0.25,0.03981071705534971,0,0.9014616009999372
23,768,Control,0.0,0.1,0.015848931924611127,1,0.5096404719997736
23,769,Decrease,0.25,0.1,0.015848931924611127,1,0.39280588399924454
23,770,Control,0.0,0.25,0.050118723362727206,1,0.5770269190006729
23,771,Equal,0.25,0.25,0.05011872336272721,1,0.34021488599955774
23,772,Increase,0.1,0.25,0.01995262314968879,0,0.7834872630000973
23,773,Control,0.0,0.25,0.039810717055349706,1,0.3068505129995174
23,774,Decrease,0.25,0.1,0.012589254117941666,0,0.5019145989999743
23,775,Control,0.0,0.25,0.03162277660168378,1,0.4170212140006697
23,776,Equal,0.25,0.25,0.03981071705534971,1,0.3081303030003255
23,777,Control,0.0,0.25,0.025118864315095787,0,0.6974465059993236
23,778,Equal,0.1,0.1,0.012589254117941666,0,99
23,779,Equal,0.1,0.1,0.015848931924611127,0,99
23,780,Decrease,0.25,0.1,0.015848931924611127,0,99
23,781,Increase,0.1,0.25,0.025118864315095794,1,0.8022952030005399
23,782,Increase,0.1,0.25,0.01995262314968879,0,99
23,783,Equal,0.1,0.1,0.01995262314968879,1,0.42123359800007165
23,784,Control,0.0,0.25,0.03162277660168378,1,0.5203884400007155
23,785,Control,0.0,0.1,0.012589254117941666,1,0.3639695899992148
23,786,Control,0.0,0.1,0.009999999999999995,0,99
23,787,Control,0.0,0.25,0.025118864315095787,0,99
23,788,Equal,0.25,0.25,0.031622776601683784,0,99
23,789,Control,0.0,0.1,0.012589254117941666,0,99
23,790,Control,0.0,0.25,0.03162277660168378,1,0.5996193569999377
23,791,Equal,0.25,0.25,0.03981071705534971,1,0.5879450480006199
23,792,Increase,0.1,0.25,0.025118864315095794,0,99
23,793,Decrease,0.25,0.1,0.01995262314968879,0,99
23,794,Control,0.0,0.1,0.015848931924611127,0,99
23,795,Control,0.0,0.1,0.01995262314968879,0,99
23,796,Control,0.0,0.25,0.025118864315095787,0,99
23,797,Increase,0.1,0.25,0.031622776601683784,1,0.575380681999377
23,798,Equal,0.25,0.25,0.031622776601683784,1,0.4172863089997918
23,799,Decrease,0.25,0.1,0.025118864315095794,1,0.5254745140000523
23,800,Decrease,0.25,0.1,0.01995262314968879,1,0.6167987580001864
23,801,Control,0.0,0.25,0.03162277660168378,0,99
23,802,Decrease,0.25,0.1,0.015848931924611127,1,0.655164546999913
23,803,Control,0.0,0.25,0.039810717055349706,1,0.6833841830002712
23,804,Decrease,0.25,0.1,0.012589254117941666,0,99
23,805,Control,0.0,0.25,0.03162277660168378,1,0.7446199790001629
23,806,Control,0.0,0.1,0.025118864315095794,1,0.5238854510007513
23,807,Control,0.0,0.1,0.01995262314968879,1,0.6759302600003139
23,808,Control,0.0,0.1,0.015848931924611127,1,0.41507871500016336
23,809,Control,0.0,0.1,0.012589254117941666,0,99
23,810,Decrease,0.25,0.1,0.015848931924611127,1,0.4754508160003752
23,811,Control,0.0,0.25,0.025118864315095787,1,0.822590714999933
23,812,Control,0.0,0.25,0.019952623149688785,0,0.5699682629992822
23,813,Decrease,0.25,0.1,0.012589254117941666,1,0.4295473660004063
23,814,Control,0.0,0.1,0.015848931924611127,1,0.15234242899987294
23,815,Control,0.0,0.1,0.012589254117941666,0,99
23,816,Control,0.0,0.25,0.025118864315095787,1,0.49604497800009995
23,817,Control,0.0,0.1,0.015848931924611127,1,0.6211629360004736
23,818,Control,0.0,0.1,0.012589254117941666,0,99
23,819,Control,0.0,0.25,0.019952623149688785,0,99
23,820,Control,0.0,0.1,0.015848931924611127,0,99
23,821,Control,0.0,0.25,0.025118864315095787,0,99
23,822,Control,0.0,0.25,0.03162277660168378,0,99
23,823,Control,0.0,0.1,0.01995262314968879,0,99
23,824,Control,0.0,0.1,0.025118864315095794,0,99
23,825,Control,0.0,0.1,0.031622776601683784,0,99
23,826,Control,0.0,0.1,0.03981071705534971,0,99
23,827,Control,0.0,0.1,0.05011872336272721,0,99
23,828,Control,0.0,0.1,0.0630957344480193,0,99
23,829,Control,0.0,0.1,0.07943282347242812,1,0.7739952769998126
23,830,Control,0.0,0.1,0.0630957344480193,1,0.3936246419998497
23,831,Control,0.0,0.1,0.050118723362727206,1,0.21845693399973243
23,832,Control,0.0,0.1,0.039810717055349706,1,0.3096969990001526
23,833,Control,0.0,0.1,0.03162277660168378,1,0.42173882800034335
23,834,Control,0.0,0.1,0.025118864315095787,1,0.4087773439996454
23,835,Control,0.0,0.1,0.019952623149688785,1,0.34600780999971903
23,836,Control,0.0,0.1,0.015848931924611124,0,99
23,837,Control,0.0,0.1,0.019952623149688785,0,99
23,838,Control,0.0,0.1,0.025118864315095787,1,0.6040358430000197
23,839,Control,0.0,0.1,0.019952623149688785,0,99
