Participant_Number,Trial_Number,Condition,FC_distal,FC_proximal,Target_Contrast,Correct_Response,Reaction_Time
12,0,Decrease,0.25,0.1,0.1,1,0.688007864000042
12,1,Equal,0.1,0.1,0.1,1,0.3701821199999813
12,2,Increase,0.1,0.25,0.1,1,0.13327614499996798
12,3,Control,0.0,0.25,0.1,1,0.35750191099998574
12,4,Control,0.0,0.1,0.1,1,0.4807226410000567
12,5,Control,0.0,0.25,0.07943282347242815,1,0.388130689000036
12,6,Equal,0.1,0.1,0.07943282347242815,1,0.4613338980000208
12,7,Equal,0.1,0.1,0.06309573444801932,1,0.3440709879999986
12,8,Increase,0.1,0.25,0.07943282347242815,1,0.2435014750000164
12,9,Control_null,0.0,0.25,0.1,1,0.7755215519999865
12,10,Equal,0.1,0.1,0.05011872336272722,1,0.43469799799993325
12,11,Equal,0.25,0.25,0.1,1,0.24597374400002536
12,12,Equal,0.1,0.1,0.03981071705534971,1,0.3065528680000398
12,13,Control,0.0,0.25,0.06309573444801932,1,0.24636571799999274
12,14,Control,0.0,0.25,0.05011872336272722,1,0.26449745000002167
12,15,Control,0.0,0.1,0.07943282347242815,1,0.1957516160000523
12,16,Increase_null,0.1,0.25,0.1,1,0.4200216739999405
12,17,Decrease,0.25,0.1,0.07943282347242815,1,0.31902712700002667
12,18,Decrease_null,0.25,0.1,0.1,1,0.6022666310000204
12,19,Increase,0.1,0.25,0.06309573444801932,1,0.31538547599996036
12,20,Decrease,0.25,0.1,0.06309573444801932,1,0.4145205290000149
12,21,Control,0.0,0.1,0.06309573444801932,1,0.393848045000027
12,22,Control,0.0,0.1,0.05011872336272722,1,0.3256775069999094
12,23,Equal_null,0.1,0.1,0.1,1,0.481111057000021
12,24,Decrease,0.25,0.1,0.05011872336272722,1,0.292121924000071
12,25,Control,0.0,0.1,0.03981071705534971,1,0.3366271009999764
12,26,Control,0.0,0.25,0.03981071705534971,1,0.28408536099993853
12,27,Increase,0.1,0.25,0.05011872336272722,1,0.19792280199999368
12,28,Increase,0.1,0.25,0.03981071705534971,1,0.4010700870001074
12,29,Equal,0.1,0.1,0.031622776601683784,1,0.3293832469998961
12,30,Control,0.0,0.25,0.031622776601683784,1,0.22837712799992005
12,31,Decrease,0.25,0.1,0.03981071705534971,1,0.24081513099997665
12,32,Decrease,0.25,0.1,0.031622776601683784,1,0.2658891069999072
12,33,Control,0.0,0.25,0.02511886431509579,1,0.26102385900003355
12,34,Decrease,0.25,0.1,0.02511886431509579,1,0.40810817999999927
12,35,Control,0.0,0.25,0.01995262314968879,0,0.27526544700003797
12,36,Equal,0.1,0.1,0.02511886431509579,0,0.6067190439999877
12,37,Control,0.0,0.1,0.031622776601683784,1,0.3546720510000796
12,38,Increase,0.1,0.25,0.031622776601683784,1,0.2703771390000611
12,39,Equal,0.25,0.25,0.07943282347242815,1,0.22625001399990197
12,40,Control,0.0,0.25,0.025118864315095794,1,0.2822651159999623
12,41,Increase_null,0.1,0.25,0.07943282347242815,1,0.45313453000005666
12,42,Equal,0.1,0.1,0.031622776601683784,1,0.38981845499995416
12,43,Equal,0.1,0.1,0.02511886431509579,1,0.3050051849999136
12,44,Decrease,0.25,0.1,0.01995262314968879,0,0.4692021129999375
12,45,Control,0.0,0.1,0.02511886431509579,1,0.23023075399999016
12,46,Control,0.0,0.25,0.01995262314968879,1,0.3215300170001001
12,47,Control,0.0,0.1,0.01995262314968879,0,0.3963826469999958
12,48,Control,0.0,0.1,0.025118864315095794,1,0.33689730399999007
12,49,Control,0.0,0.25,0.015848931924611127,1,0.4202250199999753
12,50,Equal,0.1,0.1,0.01995262314968879,1,0.32703733000005286
12,51,Control,0.0,0.25,0.012589254117941666,1,0.5865940639999963
12,52,Control,0.0,0.25,0.009999999999999995,0,0.2465459169999349
12,53,Decrease,0.25,0.1,0.025118864315095794,1,0.2556385859999182
12,54,Equal,0.1,0.1,0.015848931924611127,1,0.28304942900001606
12,55,Equal,0.25,0.25,0.06309573444801932,1,0.3149803259999544
12,56,Equal,0.25,0.25,0.05011872336272722,1,0.2062468459999991
12,57,Equal,0.25,0.25,0.03981071705534971,1,0.2024544229999492
12,58,Equal,0.25,0.25,0.031622776601683784,1,0.22746268299999883
12,59,Control,0.0,0.1,0.01995262314968879,1,0.3669123079999963
12,60,Control,0.0,0.25,0.012589254117941666,0,0.738159966000012
12,61,Decrease,0.25,0.1,0.01995262314968879,1,0.3012863860000152
12,62,Equal,0.1,0.1,0.012589254117941666,1,0.3700135550000141
12,63,Control,0.0,0.1,0.015848931924611127,1,0.3006174070000043
12,64,Equal,0.1,0.1,0.009999999999999995,0,0.5442412580000564
12,65,Control,0.0,0.1,0.012589254117941666,0,0.5070813429999816
12,66,Equal,0.25,0.25,0.02511886431509579,1,0.33925330800002484
12,67,Control,0.0,0.25,0.015848931924611127,1,0.318315785999971
12,68,Equal,0.25,0.25,0.01995262314968879,1,0.32752898299997923
12,69,Decrease,0.25,0.1,0.015848931924611127,1,0.2908745859999726
12,70,Equal,0.25,0.25,0.015848931924611127,1,0.2839187019999372
12,71,Equal,0.25,0.25,0.012589254117941666,0,0.5118454769999516
12,72,Decrease,0.25,0.1,0.012589254117941666,1,0.2753572089999352
12,73,Control,0.0,0.1,0.015848931924611127,1,0.26234111999997367
12,74,Increase,0.1,0.25,0.02511886431509579,1,0.2656069600000137
12,75,Decrease,0.25,0.1,0.009999999999999995,0,0.5898055549999981
12,76,Equal,0.1,0.1,0.012589254117941666,0,0.3367557679999891
12,77,Increase,0.1,0.25,0.01995262314968879,0,0.10730452999996487
12,78,Increase,0.1,0.25,0.025118864315095794,1,0.49431240499995965
12,79,Control,0.0,0.1,0.012589254117941666,0,0.43858860700004243
12,80,Equal,0.1,0.1,0.015848931924611127,0,0.138690810000071
12,81,Increase,0.1,0.25,0.01995262314968879,0,0.043206851000036295
12,82,Equal,0.25,0.25,0.015848931924611127,0,0.10201104300006136
12,83,Equal,0.25,0.25,0.01995262314968879,0,0.1519944099999293
12,84,Equal,0.25,0.25,0.025118864315095794,0,0.06746803999999429
12,85,Equal,0.1,0.1,0.01995262314968879,0,0.25443257599999924
12,86,Equal,0.25,0.25,0.031622776601683784,0,0.10701475600001231
12,87,Control,0.0,0.1,0.015848931924611127,0,0.2141863580000063
12,88,Control,0.0,0.25,0.012589254117941666,0,0.03327676200001406
12,89,Decrease,0.25,0.1,0.012589254117941666,0,0.21577372800004468
12,90,Equal,0.1,0.1,0.025118864315095794,0,99
12,91,Control_null,0.0,0.25,0.07943282347242815,1,0.051735658999973566
12,92,Control,0.0,0.1,0.01995262314968879,1,0.04402602100003605
12,93,Equal,0.25,0.25,0.03981071705534971,0,0.023016044999963015
12,94,Decrease,0.25,0.1,0.015848931924611127,1,0.46428108999998585
12,95,Decrease,0.25,0.1,0.012589254117941666,0,0.28357647999996516
12,96,Decrease,0.25,0.1,0.015848931924611127,0,0.10153647600009208
12,97,Decrease,0.25,0.1,0.01995262314968879,0,0.1124890390000246
12,98,Control_null,0.0,0.1,0.1,1,0.07597557400004007
12,99,Decrease,0.25,0.1,0.025118864315095794,0,0.1363524949999828
12,100,Increase,0.1,0.25,0.025118864315095794,1,0.4594568160000563
12,101,Control,0.0,0.1,0.015848931924611127,1,0.34522146199992676
12,102,Increase,0.1,0.25,0.01995262314968879,0,0.325229135000086
12,103,Equal_null,0.1,0.1,0.07943282347242815,1,0.1901074539999854
12,104,Increase_null,0.1,0.25,0.06309573444801932,1,0.1372686160000285
12,105,Control_null,0.0,0.25,0.06309573444801932,1,0.1294827599999735
12,106,Equal,0.1,0.1,0.031622776601683784,1,0.3815614119999964
12,107,Control,0.0,0.25,0.015848931924611127,1,0.31783562900000106
12,108,Decrease,0.25,0.1,0.031622776601683784,1,0.32091798399994786
12,109,Control,0.0,0.25,0.012589254117941666,0,0.4522111889999678
12,110,Decrease,0.25,0.1,0.02511886431509579,1,0.4073335949999546
12,111,Control,0.0,0.25,0.015848931924611127,1,0.37853622400007225
12,112,Control_null,0.0,0.1,0.07943282347242815,1,0.4695731470000055
12,113,Control,0.0,0.1,0.012589254117941666,0,0.3769099919999235
12,114,Control,0.0,0.25,0.012589254117941666,0,0.4212933559999783
12,115,Control,0.0,0.1,0.015848931924611127,1,0.25062196299995776
12,116,Control,0.0,0.25,0.015848931924611127,0,0.46726837400001386
12,117,Equal,0.25,0.25,0.05011872336272721,1,0.3345495820000224
12,118,Equal,0.25,0.25,0.03981071705534971,1,0.2227949120000403
12,119,Equal,0.1,0.1,0.02511886431509579,0,99
12,120,Equal,0.1,0.1,0.031622776601683784,1,0.3045229059999883
12,121,Control,0.0,0.25,0.01995262314968879,1,0.3153129730000046
12,122,Decrease,0.25,0.1,0.01995262314968879,0,0.6627229470000202
12,123,Control,0.0,0.1,0.012589254117941666,0,0.4417618749999974
12,124,Equal,0.25,0.25,0.031622776601683784,1,0.21411540700000842
12,125,Decrease_null,0.25,0.1,0.07943282347242815,1,0.3773283130000209
12,126,Equal,0.25,0.25,0.02511886431509579,1,0.4606576619999032
12,127,Control,0.0,0.25,0.015848931924611127,0,0.6011839430000236
12,128,Control,0.0,0.25,0.01995262314968879,1,0.4291671490000226
12,129,Control,0.0,0.1,0.015848931924611127,1,0.39017631299998357
12,130,Control,0.0,0.1,0.012589254117941666,0,0.4982578389999617
12,131,Control,0.0,0.1,0.015848931924611127,1,0.40256100099986725
12,132,Decrease,0.25,0.1,0.025118864315095794,1,0.26170723899986115
12,133,Equal,0.25,0.25,0.01995262314968879,1,0.4709067060000507
12,134,Decrease,0.25,0.1,0.01995262314968879,1,0.33014699499995004
12,135,Equal,0.25,0.25,0.015848931924611127,1,0.3092966100000467
12,136,Equal,0.25,0.25,0.012589254117941666,0,0.5125263499999164
12,137,Increase,0.1,0.25,0.025118864315095794,1,0.6758705199999895
12,138,Control,0.0,0.25,0.015848931924611127,0,1.2387553110002045
12,139,Control_null,0.0,0.25,0.05011872336272722,1,0.610024206999924
12,140,Control,0.0,0.1,0.012589254117941666,1,0.5893409349998819
12,141,Equal,0.25,0.25,0.015848931924611127,1,0.4186248579999301
12,142,Equal,0.25,0.25,0.012589254117941666,0,0.451520187999904
12,143,Decrease,0.25,0.1,0.015848931924611127,0,0.510651973999984
12,144,Equal,0.25,0.25,0.015848931924611127,1,0.6790580490001048
12,145,Control,0.0,0.25,0.01995262314968879,1,0.5068318199998885
12,146,Control,0.0,0.25,0.015848931924611127,1,0.48428412699990986
12,147,Increase,0.1,0.25,0.01995262314968879,0,0.4714847180000561
12,148,Equal,0.25,0.25,0.012589254117941666,0,0.4587014960000033
12,149,Control,0.0,0.1,0.009999999999999995,0,0.5019063610000103
12,150,Increase,0.1,0.25,0.025118864315095794,1,0.4089661729999534
12,151,Equal,0.1,0.1,0.02511886431509579,1,0.41992145699987304
12,152,Increase,0.1,0.25,0.01995262314968879,0,0.5112905720000072
12,153,Decrease,0.25,0.1,0.01995262314968879,1,0.6202436000000944
12,154,Equal_null,0.1,0.1,0.06309573444801932,0,99
12,155,Equal,0.1,0.1,0.01995262314968879,0,0.3850436699999591
12,156,Equal,0.25,0.25,0.015848931924611127,1,0.6202219490000971
12,157,Equal_null,0.1,0.1,0.07943282347242814,1,0.46943652799996016
12,158,Equal,0.1,0.1,0.025118864315095794,1,0.7445617949999814
12,159,Increase,0.1,0.25,0.025118864315095794,1,0.5538148819998696
12,160,Increase,0.1,0.25,0.01995262314968879,1,0.5885742440000286
12,161,Increase,0.1,0.25,0.015848931924611127,0,0.5838256649999494
12,162,Control,0.0,0.1,0.012589254117941666,0,0.4513044650000211
12,163,Decrease_null,0.25,0.1,0.06309573444801932,0,99
12,164,Control,0.0,0.25,0.012589254117941666,0,0.48276982099991983
12,165,Equal,0.1,0.1,0.01995262314968879,1,0.6057066260000283
12,166,Increase,0.1,0.25,0.01995262314968879,0,0.610550559000103
12,167,Equal,0.25,0.25,0.012589254117941666,0,0.4782292759998654
12,168,Control,0.0,0.25,0.015848931924611127,0,0.19947179599989795
12,169,Increase,0.1,0.25,0.025118864315095794,0,0.4186022859998957
12,170,Control,0.0,0.25,0.01995262314968879,0,0.6904666769999039
12,171,Decrease,0.25,0.1,0.015848931924611127,1,0.6376344079999399
12,172,Increase,0.1,0.25,0.031622776601683784,1,0.5443545420000646
12,173,Increase,0.1,0.25,0.02511886431509579,1,0.523468978999972
12,174,Control,0.0,0.1,0.015848931924611127,0,0.4541437650000262
12,175,Control,0.0,0.25,0.025118864315095794,1,0.6174203020000277
12,176,Equal,0.1,0.1,0.015848931924611127,0,0.5806206469999324
12,177,Equal,0.1,0.1,0.01995262314968879,1,0.7358077050000702
12,178,Increase,0.1,0.25,0.01995262314968879,0,0.819356118000087
12,179,Decrease,0.25,0.1,0.012589254117941666,0,0.5746144580000419
12,180,Decrease,0.25,0.1,0.015848931924611127,0,0.8828157150001061
12,181,Equal,0.1,0.1,0.015848931924611127,0,0.6511228320000555
12,182,Control,0.0,0.1,0.01995262314968879,1,0.9578761729999314
12,183,Equal,0.1,0.1,0.01995262314968879,0,99
12,184,Control,0.0,0.1,0.015848931924611127,0,0.6024331900000561
12,185,Equal,0.25,0.25,0.015848931924611127,1,0.54757443099993
12,186,Control_null,0.0,0.25,0.03981071705534971,1,0.5508180639999409
12,187,Decrease,0.25,0.1,0.01995262314968879,0,0.6578458900000896
12,188,Control,0.0,0.25,0.01995262314968879,0,0.6447910090000732
12,189,Increase,0.1,0.25,0.025118864315095794,1,0.4960310330000084
12,190,Control,0.0,0.25,0.025118864315095794,1,0.49154195199980677
12,191,Decrease,0.25,0.1,0.025118864315095794,1,0.45533609899985095
12,192,Decrease,0.25,0.1,0.01995262314968879,1,0.4347992110001542
12,193,Control,0.0,0.25,0.01995262314968879,0,0.46313793100011935
12,194,Equal,0.1,0.1,0.025118864315095794,1,0.5110764869998548
12,195,Control,0.0,0.1,0.01995262314968879,1,0.5461195389998466
12,196,Equal,0.1,0.1,0.01995262314968879,0,0.5956300769998961
12,197,Increase,0.1,0.25,0.01995262314968879,0,0.5829847640000025
12,198,Increase,0.1,0.25,0.025118864315095794,1,0.5849965459999567
12,199,Equal,0.1,0.1,0.025118864315095794,1,0.5473614159998306
12,200,Increase_null,0.1,0.25,0.05011872336272722,1,0.5833731159998479
12,201,Control,0.0,0.1,0.015848931924611127,0,0.5785511690000931
12,202,Equal_null,0.1,0.1,0.06309573444801932,1,0.5976813210002092
12,203,Increase,0.1,0.25,0.01995262314968879,0,0.5779298410000138
12,204,Control,0.0,0.1,0.01995262314968879,0,0.7022914980000223
12,205,Control,0.0,0.1,0.025118864315095794,1,0.4562087589999919
12,206,Increase,0.1,0.25,0.025118864315095794,0,0.5873814320000292
12,207,Equal,0.25,0.25,0.012589254117941666,0,0.5877277380000123
12,208,Increase,0.1,0.25,0.031622776601683784,1,0.566614884000046
12,209,Decrease,0.25,0.1,0.015848931924611127,1,0.49608925600000475
12,210,Control,0.0,0.1,0.01995262314968879,0,0.5872851379999702
12,211,Decrease,0.25,0.1,0.012589254117941666,0,0.5410956250000254
12,212,Increase,0.1,0.25,0.02511886431509579,1,0.46452420200012057
12,213,Control,0.0,0.1,0.025118864315095794,1,0.4918365480000375
12,214,Control,0.0,0.25,0.025118864315095794,0,99
12,215,Control,0.0,0.1,0.01995262314968879,1,0.5223854140001549
12,216,Equal,0.25,0.25,0.015848931924611127,0,0.7421880459999102
12,217,Equal,0.1,0.1,0.01995262314968879,1,0.610582524000165
12,218,Control,0.0,0.1,0.015848931924611127,0,0.5399282839998705
12,219,Increase,0.1,0.25,0.01995262314968879,0,0.5359074220000366
12,220,Control,0.0,0.25,0.031622776601683784,1,0.4159281249999367
12,221,Control,0.0,0.25,0.02511886431509579,1,0.427202397000201
12,222,Control,0.0,0.1,0.01995262314968879,1,0.4604468590000579
12,223,Equal_null,0.1,0.1,0.05011872336272722,1,0.5275188659998093
12,224,Decrease,0.25,0.1,0.015848931924611127,1,0.4979174590000639
12,225,Decrease,0.25,0.1,0.012589254117941666,0,0.46059768600002826
12,226,Equal,0.1,0.1,0.015848931924611127,0,0.5280518330000632
12,227,Equal,0.1,0.1,0.01995262314968879,0,0.4435662000000775
12,228,Control,0.0,0.1,0.015848931924611127,0,0.5997053539999797
12,229,Equal,0.1,0.1,0.025118864315095794,1,0.4437055349999355
12,230,Equal,0.1,0.1,0.01995262314968879,1,0.6241121160001057
12,231,Equal,0.1,0.1,0.015848931924611127,1,0.5050143720000051
12,232,Equal,0.1,0.1,0.012589254117941666,0,0.5412081219999436
12,233,Decrease,0.25,0.1,0.015848931924611127,1,0.5664456430001792
12,234,Control,0.0,0.25,0.01995262314968879,0,0.7137137830000029
12,235,Control,0.0,0.25,0.025118864315095794,1,0.40965899699995134
12,236,Control,0.0,0.25,0.01995262314968879,0,0.40479635300016525
12,237,Equal,0.25,0.25,0.01995262314968879,1,0.3591298880000977
12,238,Control_null,0.0,0.25,0.031622776601683784,1,0.40235283500010155
12,239,Equal,0.25,0.25,0.015848931924611127,1,0.46956426599990664
12,240,Control,0.0,0.25,0.025118864315095794,0,99
12,241,Equal,0.25,0.25,0.012589254117941666,0,99
12,242,Equal,0.1,0.1,0.015848931924611127,1,0.5147399099998893
12,243,Equal,0.25,0.25,0.015848931924611127,0,0.5095569279999381
12,244,Equal,0.1,0.1,0.012589254117941666,0,0.4810719100000824
12,245,Decrease,0.25,0.1,0.012589254117941666,0,0.5883959350001078
12,246,Equal_null,0.25,0.25,0.1,1,0.5772262650000357
12,247,Decrease,0.25,0.1,0.015848931924611127,0,0.5821197059999577
12,248,Equal_null,0.1,0.1,0.03981071705534971,1,0.47197352200009846
12,249,Equal,0.25,0.25,0.01995262314968879,1,0.507010598000079
12,250,Increase_null,0.1,0.25,0.03981071705534971,1,0.4114779270000781
12,251,Equal,0.25,0.25,0.015848931924611127,1,0.5192632729999787
12,252,Equal,0.1,0.1,0.015848931924611127,0,0.47454586000003474
12,253,Decrease,0.25,0.1,0.01995262314968879,1,0.5467898619999687
12,254,Equal,0.1,0.1,0.01995262314968879,0,0.5098589489998631
12,255,Control,0.0,0.1,0.01995262314968879,0,0.46499004300017077
12,256,Control,0.0,0.1,0.025118864315095794,1,0.5159784080001373
12,257,Decrease,0.25,0.1,0.015848931924611127,1,0.591547195999965
12,258,Equal,0.25,0.25,0.012589254117941666,0,0.5309706729999562
12,259,Increase,0.1,0.25,0.025118864315095794,1,0.5360307910000301
12,260,Equal,0.1,0.1,0.025118864315095794,1,0.5413401309999699
12,261,Increase,0.1,0.25,0.01995262314968879,1,0.4541887109999152
12,262,Control_null,0.0,0.1,0.06309573444801932,1,0.4015105630001017
12,263,Control,0.0,0.1,0.01995262314968879,1,0.48140906699995867
12,264,Equal,0.25,0.25,0.015848931924611127,1,0.3578174679998938
12,265,Increase,0.1,0.25,0.015848931924611127,0,0.44900473699999566
12,266,Control,0.0,0.1,0.015848931924611127,0,0.6010586289999083
12,267,Equal,0.25,0.25,0.012589254117941666,0,0.47529595900005006
12,268,Control_null,0.0,0.1,0.05011872336272722,1,0.4384327630000371
12,269,Control,0.0,0.25,0.031622776601683784,1,0.44256378199997926
12,270,Increase,0.1,0.25,0.01995262314968879,0,0.38182287399990855
12,271,Increase,0.1,0.25,0.025118864315095794,1,0.44907517999990887
12,272,Decrease,0.25,0.1,0.012589254117941666,0,0.5735060550000526
12,273,Decrease,0.25,0.1,0.015848931924611127,1,0.4590630049999618
12,274,Control,0.0,0.1,0.01995262314968879,1,0.6047286360001181
12,275,Equal,0.1,0.1,0.01995262314968879,0,0.3037613760000113
12,276,Equal,0.1,0.1,0.025118864315095794,1,0.3437517449999632
12,277,Control,0.0,0.1,0.015848931924611127,0,0.7392569619998994
12,278,Control,0.0,0.25,0.02511886431509579,1,0.3833559580000383
12,279,Control_null,0.0,0.25,0.02511886431509579,1,0.6071888580001996
12,280,Decrease_null,0.25,0.1,0.07943282347242814,1,0.45099046500013173
12,281,Control,0.0,0.1,0.01995262314968879,1,0.358969949999846
12,282,Equal,0.1,0.1,0.01995262314968879,1,0.32215398499988623
12,283,Increase,0.1,0.25,0.01995262314968879,1,0.6934208889999809
12,284,Increase,0.1,0.25,0.015848931924611127,1,0.7286662160001924
12,285,Control,0.0,0.25,0.01995262314968879,1,0.5090494620001209
12,286,Equal,0.25,0.25,0.015848931924611127,0,0.4809326859999601
12,287,Decrease_null,0.25,0.1,0.06309573444801932,1,0.3539970289998564
12,288,Control,0.0,0.1,0.015848931924611127,0,0.7173390169998584
12,289,Equal,0.25,0.25,0.01995262314968879,0,0.5334389470001497
12,290,Equal,0.25,0.25,0.025118864315095794,0,0.6646729779999987
12,291,Control,0.0,0.25,0.015848931924611127,0,0.3718666810000286
12,292,Control,0.0,0.1,0.01995262314968879,0,0.6918735540000398
12,293,Control,0.0,0.1,0.025118864315095794,0,0.671982706000108
12,294,Decrease,0.25,0.1,0.012589254117941666,0,0.5554166940000869
12,295,Increase,0.1,0.25,0.012589254117941666,0,0.5506610880001972
12,296,Control,0.0,0.25,0.01995262314968879,0,0.5538600210002187
12,297,Control,0.0,0.25,0.025118864315095794,1,0.4367976569999428
12,298,Control,0.0,0.25,0.01995262314968879,0,0.4255769850001343
12,299,Decrease,0.25,0.1,0.015848931924611127,1,0.39077412400001776
12,300,Equal,0.1,0.1,0.015848931924611127,1,0.5034890529998393
12,301,Control_null,0.0,0.1,0.03981071705534971,1,0.4585297660000833
12,302,Increase,0.1,0.25,0.015848931924611127,1,0.4505530710000585
12,303,Increase,0.1,0.25,0.012589254117941666,0,0.43103003699980036
12,304,Equal,0.1,0.1,0.012589254117941666,0,0.44216910599993753
12,305,Equal,0.1,0.1,0.015848931924611127,1,0.3872550669998418
12,306,Equal,0.25,0.25,0.031622776601683784,1,0.35864086300011877
12,307,Increase,0.1,0.25,0.015848931924611127,1,0.2898552260000997
12,308,Control_null,0.0,0.1,0.031622776601683784,1,0.5409970789999079
12,309,Control,0.0,0.25,0.025118864315095794,1,0.40808941399996
12,310,Control_null,0.0,0.1,0.02511886431509579,1,0.42834723699979804
12,311,Decrease,0.25,0.1,0.012589254117941666,0,0.45705797300001905
12,312,Control,0.0,0.1,0.031622776601683784,1,0.3887104299999464
12,313,Decrease,0.25,0.1,0.015848931924611127,1,0.6696262339999066
12,314,Control,0.0,0.1,0.02511886431509579,1,0.45683618399993975
12,315,Equal,0.25,0.25,0.02511886431509579,1,0.3290398809999715
12,316,Increase,0.1,0.25,0.012589254117941666,1,0.4534609709999131
12,317,Equal,0.1,0.1,0.012589254117941666,0,0.28869533600004615
12,318,Decrease,0.25,0.1,0.012589254117941666,0,0.41767123199997513
12,319,Control,0.0,0.25,0.01995262314968879,1,0.5727272199999334
12,320,Increase,0.1,0.25,0.009999999999999995,0,0.4240448779999042
12,321,Increase,0.1,0.25,0.012589254117941666,0,0.2913760380001804
12,322,Increase,0.1,0.25,0.015848931924611127,1,0.4386224099998799
12,323,Control_null,0.0,0.1,0.01995262314968879,1,0.3867620089999946
12,324,Control,0.0,0.25,0.015848931924611127,1,0.4220894559998669
12,325,Control,0.0,0.25,0.012589254117941666,0,0.37170955600004163
12,326,Control,0.0,0.1,0.01995262314968879,0,0.6361749220000092
12,327,Control_null,0.0,0.1,0.015848931924611127,1,1.0713812349999898
12,328,Decrease,0.25,0.1,0.015848931924611127,1,0.30369529600011447
12,329,Equal_null,0.1,0.1,0.031622776601683784,1,0.4032818869998209
12,330,Decrease,0.25,0.1,0.012589254117941666,0,0.48704261900002166
12,331,Control,0.0,0.1,0.025118864315095794,0,99
12,332,Equal,0.25,0.25,0.01995262314968879,0,0.5793975770000088
12,333,Control_null,0.0,0.1,0.012589254117941666,1,0.4796506860000136
12,334,Control,0.0,0.1,0.031622776601683784,1,0.6268098000000464
12,335,Control,0.0,0.1,0.02511886431509579,0,0.43814154699998653
12,336,Equal,0.1,0.1,0.015848931924611127,1,0.6810859140000503
12,337,Decrease,0.25,0.1,0.015848931924611127,0,0.8455587359999299
12,338,Equal,0.25,0.25,0.025118864315095794,0,99
12,339,Equal,0.25,0.25,0.031622776601683784,1,0.35974106100002246
12,340,Decrease,0.25,0.1,0.01995262314968879,0,0.48279554600003394
12,341,Equal,0.25,0.25,0.02511886431509579,0,99
12,342,Increase,0.1,0.25,0.012589254117941666,0,0.4625765700000102
12,343,Equal,0.25,0.25,0.031622776601683784,1,0.6343255799999952
12,344,Control,0.0,0.25,0.015848931924611127,1,0.611619735000204
12,345,Control,0.0,0.25,0.012589254117941666,0,0.47854457599987654
12,346,Increase,0.1,0.25,0.015848931924611127,0,99
12,347,Equal,0.25,0.25,0.02511886431509579,0,99
12,348,Control,0.0,0.25,0.015848931924611127,1,0.5388117659999807
12,349,Equal,0.25,0.25,0.031622776601683784,1,0.42161066800008484
12,350,Equal,0.1,0.1,0.012589254117941666,0,0.5357413189999534
12,351,Equal_null,0.25,0.25,0.07943282347242815,1,0.4749364389999755
12,352,Decrease,0.25,0.1,0.025118864315095794,1,0.4360971129999598
12,353,Increase,0.1,0.25,0.01995262314968879,0,0.47932111900013297
12,354,Control,0.0,0.25,0.012589254117941666,0,0.6076686970000083
12,355,Equal_null,0.1,0.1,0.02511886431509579,0,99
12,356,Control,0.0,0.25,0.015848931924611127,0,0.5657814900000631
12,357,Control,0.0,0.1,0.031622776601683784,0,99
12,358,Equal,0.1,0.1,0.015848931924611127,0,0.44426786700000775
12,359,Decrease_null,0.25,0.1,0.05011872336272722,1,0.4301226250001946
12,360,Control,0.0,0.1,0.03981071705534971,1,0.48129940300009366
12,361,Decrease,0.25,0.1,0.01995262314968879,0,99
12,362,Control,0.0,0.25,0.01995262314968879,1,0.6487368680000145
12,363,Equal,0.25,0.25,0.02511886431509579,1,0.3640032179998798
12,364,Control,0.0,0.25,0.015848931924611127,1,0.32720396399986384
12,365,Equal,0.1,0.1,0.01995262314968879,1,0.5179799090001325
12,366,Control,0.0,0.25,0.012589254117941666,1,0.5055734420000135
12,367,Decrease,0.25,0.1,0.025118864315095794,1,0.5063154459999168
12,368,Equal,0.1,0.1,0.015848931924611127,1,0.47764830500000244
12,369,Equal,0.1,0.1,0.012589254117941666,0,0.5660062719998677
12,370,Equal,0.1,0.1,0.015848931924611127,1,0.7701869380000517
12,371,Equal,0.25,0.25,0.01995262314968879,1,0.5466559450001114
12,372,Equal,0.25,0.25,0.015848931924611127,1,0.3496202290000383
12,373,Control,0.0,0.25,0.009999999999999995,1,0.4409010239999134
12,374,Control,0.0,0.1,0.031622776601683784,1,0.3718883520000418
12,375,Increase,0.1,0.25,0.025118864315095794,1,0.4070596939998268
12,376,Decrease,0.25,0.1,0.01995262314968879,1,0.42636008099998435
12,377,Control,0.0,0.1,0.02511886431509579,1,0.41464908300008574
12,378,Equal,0.1,0.1,0.012589254117941666,0,0.5885162890001538
12,379,Increase_null,0.1,0.25,0.031622776601683784,1,0.44002410999996755
12,380,Equal,0.25,0.25,0.012589254117941666,0,99
12,381,Decrease,0.25,0.1,0.015848931924611127,1,0.5643522350001149
12,382,Increase,0.1,0.25,0.01995262314968879,0,99
12,383,Increase,0.1,0.25,0.025118864315095794,1,0.4003090630001225
12,384,Control,0.0,0.1,0.01995262314968879,1,0.46486476400014
12,385,Equal,0.1,0.1,0.015848931924611127,0,0.4999334279998493
12,386,Control,0.0,0.25,0.00794328234724281,0,0.37430575400003363
12,387,Equal,0.1,0.1,0.01995262314968879,1,0.4574635809999563
12,388,Decrease,0.25,0.1,0.012589254117941666,0,99
12,389,Equal,0.1,0.1,0.015848931924611127,0,0.3198897180000131
12,390,Equal,0.25,0.25,0.015848931924611127,0,0.4833078649999152
12,391,Equal,0.25,0.25,0.01995262314968879,1,0.6245488080000996
12,392,Control_null,0.0,0.1,0.009999999999999995,1,0.6525154349999411
12,393,Decrease,0.25,0.1,0.015848931924611127,0,0.4292881410001428
12,394,Control,0.0,0.25,0.009999999999999995,0,0.6485380980000173
12,395,Equal_null,0.25,0.25,0.06309573444801932,1,0.38582413099993573
12,396,Decrease,0.25,0.1,0.01995262314968879,0,0.6532032560000971
12,397,Control,0.0,0.25,0.012589254117941666,0,0.2293430269999135
12,398,Increase_null,0.1,0.25,0.02511886431509579,0,99
12,399,Control,0.0,0.25,0.015848931924611127,0,0.4835879229999591
12,400,Equal,0.25,0.25,0.015848931924611127,0,0.6384661839999808
12,401,Equal,0.1,0.1,0.01995262314968879,0,0.6097054030001345
12,402,Control,0.0,0.1,0.015848931924611127,0,0.7102471959999548
12,403,Equal,0.25,0.25,0.01995262314968879,0,0.546430354999984
12,404,Decrease,0.25,0.1,0.025118864315095794,0,99
12,405,Equal,0.1,0.1,0.025118864315095794,0,0.4039638889998969
12,406,Control,0.0,0.1,0.01995262314968879,0,0.4436527689999821
12,407,Decrease,0.25,0.1,0.031622776601683784,1,0.46298831400008567
12,408,Increase_null,0.1,0.25,0.031622776601683784,1,0.4962882060001448
12,409,Control,0.0,0.25,0.01995262314968879,1,0.4914567750001879
12,410,Control,0.0,0.1,0.025118864315095794,0,0.5142994400000589
12,411,Equal,0.1,0.1,0.031622776601683784,1,0.44692954799984363
12,412,Control,0.0,0.25,0.015848931924611127,1,0.5780669779999243
12,413,Control,0.0,0.25,0.012589254117941666,0,0.6293499779999365
12,414,Increase,0.1,0.25,0.01995262314968879,0,0.6083183069999905
12,415,Control,0.0,0.1,0.031622776601683784,1,0.443543838000096
12,416,Increase,0.1,0.25,0.025118864315095794,1,0.5038693250000961
12,417,Control,0.0,0.1,0.02511886431509579,1,0.604237011999885
12,418,Decrease,0.25,0.1,0.02511886431509579,1,0.4095071579999967
12,419,Control,0.0,0.1,0.01995262314968879,1,0.4103813579999951
12,420,Decrease,0.25,0.1,0.01995262314968879,1,0.6844548139999915
12,421,Control_null,0.0,0.25,0.01995262314968879,1,0.5645583800001077
12,422,Control,0.0,0.1,0.015848931924611127,0,99
12,423,Control,0.0,0.1,0.01995262314968879,0,0.6010474039999281
12,424,Control,0.0,0.25,0.015848931924611127,0,99
12,425,Equal,0.1,0.1,0.02511886431509579,1,0.5755736000000979
12,426,Decrease,0.25,0.1,0.015848931924611127,1,1.0184446680000292
12,427,Control,0.0,0.25,0.01995262314968879,0,99
12,428,Control,0.0,0.25,0.025118864315095794,1,0.49811781999983396
12,429,Control,0.0,0.1,0.025118864315095794,0,99
12,430,Control,0.0,0.25,0.01995262314968879,1,0.5547494840000127
12,431,Equal,0.25,0.25,0.025118864315095794,1,0.48807972899999186
12,432,Increase,0.1,0.25,0.01995262314968879,0,99
12,433,Equal,0.1,0.1,0.01995262314968879,0,0.4842183659998227
12,434,Decrease,0.25,0.1,0.012589254117941666,0,99
12,435,Increase,0.1,0.25,0.025118864315095794,0,99
12,436,Equal,0.25,0.25,0.01995262314968879,0,0.5036071930001071
12,437,Equal,0.25,0.25,0.025118864315095794,0,99
12,438,Control,0.0,0.25,0.015848931924611127,0,99
12,439,Control,0.0,0.1,0.031622776601683784,1,0.5291420479998123
12,440,Decrease,0.25,0.1,0.015848931924611127,1,0.33918692500014913
12,441,Control,0.0,0.1,0.02511886431509579,1,0.3274009679998926
12,442,Increase_null,0.1,0.25,0.02511886431509579,1,0.41921411099997385
12,443,Equal,0.25,0.25,0.031622776601683784,1,0.6402974039999663
12,444,Equal,0.25,0.25,0.02511886431509579,1,0.5005739399998674
12,445,Increase,0.1,0.25,0.031622776601683784,1,0.3322529519998625
12,446,Control,0.0,0.1,0.01995262314968879,0,0.5202717919999031
12,447,Increase,0.1,0.25,0.02511886431509579,0,0.9124245539999265
12,448,Control,0.0,0.1,0.025118864315095794,0,99
12,449,Control,0.0,0.25,0.01995262314968879,1,0.32479063900018446
12,450,Control_null,0.0,0.25,0.015848931924611127,1,0.38393664499994884
12,451,Increase,0.1,0.25,0.031622776601683784,0,99
12,452,Decrease,0.25,0.1,0.012589254117941666,0,0.3983277679999446
12,453,Control,0.0,0.25,0.015848931924611127,0,99
12,454,Equal,0.1,0.1,0.025118864315095794,0,99
12,455,Decrease,0.25,0.1,0.015848931924611127,0,99
12,456,Equal,0.1,0.1,0.031622776601683784,0,99
12,457,Equal,0.25,0.25,0.01995262314968879,1,0.37570700400010537
12,458,Equal,0.1,0.1,0.03981071705534971,1,0.14651250799988702
12,459,Equal,0.1,0.1,0.031622776601683784,1,0.24566865599990706
12,460,Equal,0.25,0.25,0.015848931924611127,0,99
12,461,Decrease,0.25,0.1,0.01995262314968879,0,0.5531532659999812
12,462,Control_null,0.0,0.25,0.012589254117941666,0,99
12,463,Control,0.0,0.25,0.01995262314968879,1,0.49447219200010295
12,464,Equal,0.25,0.25,0.01995262314968879,1,0.6177880359998653
12,465,Equal,0.25,0.25,0.015848931924611127,0,99
12,466,Decrease_null,0.25,0.1,0.03981071705534971,0,0.36011325000004035
12,467,Control,0.0,0.1,0.031622776601683784,1,0.4434690269999919
12,468,Decrease,0.25,0.1,0.025118864315095794,1,0.398648589000004
12,469,Equal,0.1,0.1,0.02511886431509579,0,99
12,470,Control,0.0,0.25,0.015848931924611127,0,99
12,471,Increase,0.1,0.25,0.03981071705534971,1,0.4071106960000179
12,472,Equal,0.1,0.1,0.031622776601683784,1,0.4419142429999283
12,473,Control,0.0,0.25,0.01995262314968879,1,0.40246112899990294
12,474,Control,0.0,0.25,0.015848931924611127,0,0.6696700099998907
12,475,Decrease_null,0.25,0.1,0.05011872336272721,1,0.5597707970000556
12,476,Decrease,0.25,0.1,0.01995262314968879,0,99
12,477,Increase,0.1,0.25,0.031622776601683784,1,0.518225012999892
12,478,Control,0.0,0.25,0.01995262314968879,0,0.5691861870000139
12,479,Equal,0.25,0.25,0.01995262314968879,1,0.4853709500000605
12,480,Control,0.0,0.25,0.025118864315095794,1,0.38711930900012703
12,481,Equal,0.1,0.1,0.02511886431509579,1,0.39919424300001083
12,482,Increase,0.1,0.25,0.02511886431509579,1,0.4574402349999218
12,483,Increase,0.1,0.25,0.01995262314968879,0,0.5165779559999919
12,484,Decrease,0.25,0.1,0.025118864315095794,0,0.565672215999939
12,485,Equal,0.1,0.1,0.01995262314968879,0,0.47290681100002985
12,486,Control,0.0,0.1,0.02511886431509579,1,0.4891854009999861
12,487,Equal,0.25,0.25,0.015848931924611127,0,99
12,488,Equal,0.25,0.25,0.01995262314968879,1,0.4955864820001352
12,489,Increase,0.1,0.25,0.025118864315095794,1,0.4965872059999583
12,490,Equal,0.25,0.25,0.015848931924611127,1,0.47598713000002135
12,491,Control,0.0,0.25,0.01995262314968879,1,0.47916487400016194
12,492,Control,0.0,0.1,0.01995262314968879,1,0.3701922170000671
12,493,Decrease,0.25,0.1,0.031622776601683784,1,0.43043286000010994
12,494,Equal_null,0.25,0.25,0.05011872336272722,1,0.4685348890000114
12,495,Equal,0.1,0.1,0.025118864315095794,1,0.38175432599996384
12,496,Control,0.0,0.1,0.015848931924611127,1,0.5688047599999209
12,497,Increase,0.1,0.25,0.01995262314968879,0,0.6171417660000316
12,498,Decrease_null,0.25,0.1,0.03981071705534971,1,0.4853044179999415
12,499,Equal,0.25,0.25,0.012589254117941666,0,0.5176659639998888
12,500,Control_null,0.0,0.25,0.015848931924611127,1,0.38480876199992053
12,501,Equal,0.25,0.25,0.015848931924611127,0,0.48399360300004446
12,502,Control,0.0,0.25,0.015848931924611127,0,0.38973946399983106
12,503,Equal,0.25,0.25,0.01995262314968879,0,0.46509968899999876
12,504,Equal,0.1,0.1,0.01995262314968879,1,0.2934550979998676
12,505,Equal,0.1,0.1,0.015848931924611127,1,0.35267445699992095
12,506,Equal,0.25,0.25,0.025118864315095794,1,0.21299005800005943
12,507,Equal,0.1,0.1,0.012589254117941666,0,0.37815038799999456
12,508,Control_null,0.0,0.1,0.00794328234724281,0,99
12,509,Increase,0.1,0.25,0.025118864315095794,1,0.2942222159999801
12,510,Control,0.0,0.25,0.01995262314968879,0,0.5355668019999484
12,511,Equal,0.25,0.25,0.01995262314968879,0,0.7546242469998106
12,512,Increase,0.1,0.25,0.01995262314968879,0,99
12,513,Control_null,0.0,0.1,0.009999999999999995,0,99
12,514,Increase,0.1,0.25,0.025118864315095794,1,0.5054865660001724
12,515,Control,0.0,0.25,0.025118864315095794,0,99
12,516,Equal,0.25,0.25,0.025118864315095794,1,0.6154284019999068
12,517,Control,0.0,0.1,0.012589254117941666,0,0.49068972400004895
12,518,Control,0.0,0.25,0.031622776601683784,0,99
12,519,Decrease_null,0.25,0.1,0.031622776601683784,1,0.48353523200012205
12,520,Control,0.0,0.25,0.03981071705534971,1,0.3916554460001862
12,521,Control,0.0,0.1,0.015848931924611127,0,99
12,522,Control,0.0,0.1,0.01995262314968879,0,99
12,523,Decrease,0.25,0.1,0.02511886431509579,1,0.38105539500020313
12,524,Equal,0.25,0.25,0.01995262314968879,0,0.4001423340000656
12,525,Control,0.0,0.1,0.025118864315095794,1,0.3444884309999452
12,526,Decrease,0.25,0.1,0.01995262314968879,0,0.48365508699998827
12,527,Equal,0.1,0.1,0.015848931924611127,0,0.6306991970000126
12,528,Equal_null,0.1,0.1,0.031622776601683784,1,0.3859216599998945
12,529,Control_null,0.0,0.25,0.012589254117941666,1,0.38940451200005555
12,530,Equal,0.25,0.25,0.025118864315095794,1,0.2322463279999738
12,531,Increase,0.1,0.25,0.01995262314968879,1,0.37165424099998745
12,532,Control,0.0,0.25,0.031622776601683784,1,0.22565033299997594
12,533,Control,0.0,0.1,0.01995262314968879,1,0.4701946349998707
12,534,Decrease,0.25,0.1,0.025118864315095794,1,0.5020207640000081
12,535,Control,0.0,0.1,0.015848931924611127,1,0.3134606660000827
12,536,Control,0.0,0.25,0.02511886431509579,1,0.4092438499999389
12,537,Increase,0.1,0.25,0.015848931924611127,1,0.30850678699994205
12,538,Equal,0.1,0.1,0.01995262314968879,0,99
12,539,Equal,0.1,0.1,0.025118864315095794,1,0.2870127080000202
12,540,Control,0.0,0.25,0.01995262314968879,1,0.4181942390000586
12,541,Control_null,0.0,0.1,0.012589254117941666,1,0.7014656570001989
12,542,Control,0.0,0.25,0.015848931924611127,0,99
12,543,Control,0.0,0.25,0.01995262314968879,1,0.41193782700020165
12,544,Control,0.0,0.25,0.015848931924611127,1,0.3668958459998066
12,545,Control,0.0,0.25,0.012589254117941666,0,0.6115401140000358
12,546,Decrease,0.25,0.1,0.01995262314968879,1,0.4568470039998829
12,547,Equal,0.25,0.25,0.01995262314968879,0,99
12,548,Equal,0.25,0.25,0.025118864315095794,1,0.33256042099992555
12,549,Increase,0.1,0.25,0.012589254117941666,0,0.3728734460000851
12,550,Control,0.0,0.1,0.012589254117941666,0,0.36901430600028107
12,551,Equal,0.25,0.25,0.01995262314968879,0,99
12,552,Equal,0.25,0.25,0.025118864315095794,0,99
12,553,Equal,0.25,0.25,0.031622776601683784,0,99
12,554,Equal,0.25,0.25,0.03981071705534971,1,0.3949370139998791
12,555,Increase,0.1,0.25,0.015848931924611127,1,0.4459476120000545
12,556,Increase,0.1,0.25,0.012589254117941666,1,0.5862065829996936
12,557,Equal,0.25,0.25,0.031622776601683784,1,0.44539994399974603
12,558,Equal,0.1,0.1,0.01995262314968879,0,0.48884636899992984
12,559,Equal,0.1,0.1,0.025118864315095794,0,99
12,560,Control,0.0,0.25,0.015848931924611127,1,0.6710796940001273
12,561,Decrease,0.25,0.1,0.015848931924611127,0,0.46605227300005936
12,562,Increase,0.1,0.25,0.009999999999999995,0,0.6353421300000264
12,563,Equal_null,0.1,0.1,0.02511886431509579,1,0.390374526999949
12,564,Control,0.0,0.25,0.012589254117941666,0,0.6318437489999269
12,565,Increase,0.1,0.25,0.012589254117941666,0,99
12,566,Equal,0.25,0.25,0.02511886431509579,1,0.7821139689999654
12,567,Increase,0.1,0.25,0.015848931924611127,1,0.3612804779995713
12,568,Increase,0.1,0.25,0.012589254117941666,0,0.4686677330000748
12,569,Decrease,0.25,0.1,0.01995262314968879,0,99
12,570,Increase,0.1,0.25,0.015848931924611127,0,99
12,571,Increase,0.1,0.25,0.01995262314968879,0,99
12,572,Increase,0.1,0.25,0.025118864315095794,0,99
12,573,Equal_null,0.25,0.25,0.03981071705534971,0,99
12,574,Equal,0.25,0.25,0.01995262314968879,0,99
12,575,Equal,0.25,0.25,0.025118864315095794,0,0.8409196109996628
12,576,Decrease,0.25,0.1,0.025118864315095794,0,99
12,577,Equal,0.1,0.1,0.031622776601683784,1,0.5332952180001485
12,578,Decrease,0.25,0.1,0.031622776601683784,1,0.5039948819999154
12,579,Increase,0.1,0.25,0.031622776601683784,1,0.4433721130003505
12,580,Decrease,0.25,0.1,0.02511886431509579,1,0.5343899300000885
12,581,Equal,0.1,0.1,0.02511886431509579,1,0.45905174599965903
12,582,Equal_null,0.25,0.25,0.05011872336272721,1,0.46216834599999856
12,583,Increase,0.1,0.25,0.02511886431509579,0,99
12,584,Equal_null,0.25,0.25,0.03981071705534971,0,99
12,585,Control,0.0,0.25,0.015848931924611127,0,99
12,586,Control,0.0,0.1,0.015848931924611127,0,0.538588690999859
12,587,Control,0.0,0.1,0.01995262314968879,0,0.7180908599998475
12,588,Control,0.0,0.25,0.01995262314968879,0,0.5420717970000624
12,589,Control_null,0.0,0.25,0.009999999999999995,1,0.3455724329996883
12,590,Equal,0.1,0.1,0.01995262314968879,0,0.39366613799984407
12,591,Decrease,0.25,0.1,0.01995262314968879,0,0.404668932000277
12,592,Decrease,0.25,0.1,0.025118864315095794,0,0.7209892809996745
12,593,Control,0.0,0.25,0.025118864315095794,1,0.33206471499988766
12,594,Decrease,0.25,0.1,0.031622776601683784,1,0.3432697390003341
12,595,Control,0.0,0.1,0.025118864315095794,1,0.41058268699998735
12,596,Increase,0.1,0.25,0.031622776601683784,1,0.40542796299996553
12,597,Control,0.0,0.1,0.01995262314968879,1,0.610542543000065
12,598,Decrease,0.25,0.1,0.02511886431509579,1,0.47939313100005165
12,599,Equal_null,0.25,0.25,0.05011872336272721,1,0.43813653000006525
12,600,Control,0.0,0.1,0.015848931924611127,1,0.46337397000024794
12,601,Control,0.0,0.1,0.012589254117941666,0,0.3545756469998196
12,602,Equal,0.25,0.25,0.031622776601683784,1,0.3018187200000284
12,603,Equal,0.25,0.25,0.02511886431509579,0,0.278762044999894
12,604,Equal,0.1,0.1,0.025118864315095794,0,0.2582899310000357
12,605,Control,0.0,0.1,0.015848931924611127,0,0.2543427220002741
12,606,Control,0.0,0.1,0.01995262314968879,1,0.5344866479999837
12,607,Equal,0.25,0.25,0.031622776601683784,1,0.2895795739996174
12,608,Decrease_null,0.25,0.1,0.02511886431509579,1,0.32408267100026933
12,609,Control,0.0,0.25,0.01995262314968879,0,0.2790036119999968
12,610,Control,0.0,0.25,0.025118864315095794,1,0.4339071999997941
12,611,Increase,0.1,0.25,0.02511886431509579,1,0.4134739589999299
12,612,Increase,0.1,0.25,0.01995262314968879,1,0.3936337619998085
12,613,Increase,0.1,0.25,0.015848931924611127,1,0.396801781999784
12,614,Control,0.0,0.1,0.015848931924611127,1,0.34298510700000406
12,615,Control,0.0,0.1,0.012589254117941666,0,0.354271449999942
12,616,Equal,0.1,0.1,0.031622776601683784,1,0.32327097300003516
12,617,Equal,0.25,0.25,0.02511886431509579,1,0.27156248700021024
12,618,Equal_null,0.25,0.25,0.03981071705534971,1,0.4507973569998285
12,619,Control,0.0,0.1,0.015848931924611127,0,0.6029140129999178
12,620,Control,0.0,0.25,0.01995262314968879,1,0.4142266990002099
12,621,Equal,0.1,0.1,0.02511886431509579,1,0.4640174749997641
12,622,Decrease,0.25,0.1,0.01995262314968879,0,0.5074746049999703
12,623,Control,0.0,0.25,0.015848931924611127,0,0.8546077769997282
12,624,Control,0.0,0.1,0.01995262314968879,1,0.5789206969998304
12,625,Equal_null,0.1,0.1,0.01995262314968879,1,0.4460227620002115
12,626,Decrease,0.25,0.1,0.025118864315095794,1,0.8740670460001638
12,627,Decrease,0.25,0.1,0.01995262314968879,0,99
12,628,Equal,0.25,0.25,0.01995262314968879,0,0.37678577299993776
12,629,Increase,0.1,0.25,0.012589254117941666,0,0.47347545699994953
12,630,Control,0.0,0.1,0.015848931924611127,0,0.4612352720000672
12,631,Equal,0.25,0.25,0.025118864315095794,1,0.6160322959999576
12,632,Equal,0.1,0.1,0.01995262314968879,1,0.4245167069998388
12,633,Control,0.0,0.25,0.01995262314968879,0,0.5636405969999032
12,634,Equal,0.25,0.25,0.01995262314968879,0,0.6697264549998181
12,635,Equal,0.1,0.1,0.015848931924611127,0,0.5046429349999926
12,636,Decrease,0.25,0.1,0.025118864315095794,1,0.40421260599987363
12,637,Increase,0.1,0.25,0.015848931924611127,0,0.3512899219999781
12,638,Control,0.0,0.1,0.01995262314968879,0,0.3007274229998984
12,639,Control,0.0,0.1,0.025118864315095794,1,0.39172388900033184
12,640,Equal,0.25,0.25,0.025118864315095794,1,0.6019991769999251
12,641,Equal,0.1,0.1,0.01995262314968879,0,0.6133053919998019
12,642,Decrease,0.25,0.1,0.01995262314968879,0,99
12,643,Increase,0.1,0.25,0.01995262314968879,0,99
12,644,Equal,0.25,0.25,0.01995262314968879,0,0.5236828639999658
12,645,Equal,0.25,0.25,0.025118864315095794,1,0.41260318400009055
12,646,Equal,0.25,0.25,0.01995262314968879,1,0.41581098100004965
12,647,Equal,0.25,0.25,0.015848931924611127,1,0.3623273030002565
12,648,Increase,0.1,0.25,0.025118864315095794,0,99
12,649,Control,0.0,0.25,0.025118864315095794,1,0.3615385799998876
12,650,Equal,0.25,0.25,0.012589254117941666,0,0.3168786989999717
12,651,Equal,0.1,0.1,0.025118864315095794,0,99
12,652,Decrease,0.25,0.1,0.025118864315095794,1,0.3431123889999981
12,653,Decrease,0.25,0.1,0.01995262314968879,0,0.37634687099989605
12,654,Control,0.0,0.1,0.01995262314968879,0,0.4515422849999595
12,655,Equal,0.25,0.25,0.015848931924611127,0,0.41153741100015395
12,656,Equal_null,0.25,0.25,0.031622776601683784,1,0.3989028609998968
12,657,Increase,0.1,0.25,0.031622776601683784,1,0.5060399760000109
12,658,Equal,0.1,0.1,0.031622776601683784,1,0.3234005879999131
12,659,Equal,0.25,0.25,0.01995262314968879,0,0.3585475489999226
12,660,Control_null,0.0,0.25,0.00794328234724281,1,0.4166721429996869
12,661,Equal,0.1,0.1,0.02511886431509579,1,0.571933251000246
12,662,Equal,0.25,0.25,0.025118864315095794,0,99
12,663,Control,0.0,0.25,0.01995262314968879,1,0.5302912299998752
12,664,Control,0.0,0.25,0.015848931924611127,1,0.5284062629998516
12,665,Control,0.0,0.25,0.012589254117941666,0,0.4678839120001612
12,666,Equal,0.1,0.1,0.01995262314968879,1,0.6619127960002515
12,667,Increase,0.1,0.25,0.02511886431509579,1,0.49663920400007555
12,668,Equal,0.25,0.25,0.031622776601683784,0,99
12,669,Equal,0.1,0.1,0.015848931924611127,0,99
12,670,Equal,0.1,0.1,0.01995262314968879,1,0.4007342410000092
12,671,Equal,0.25,0.25,0.03981071705534971,0,99
12,672,Equal_null,0.25,0.25,0.02511886431509579,1,0.7394979959999546
12,673,Equal,0.25,0.25,0.05011872336272721,1,0.45510071499984406
12,674,Equal_null,0.25,0.25,0.01995262314968879,1,0.7942410180003208
12,675,Equal,0.25,0.25,0.03981071705534971,1,0.437376322000091
12,676,Control,0.0,0.1,0.025118864315095794,1,0.4816594889998669
12,677,Control,0.0,0.25,0.015848931924611127,1,0.5097803519997797
12,678,Equal,0.1,0.1,0.015848931924611127,0,99
12,679,Increase,0.1,0.25,0.01995262314968879,0,99
12,680,Increase,0.1,0.25,0.025118864315095794,1,0.4554006329999538
12,681,Equal_null,0.25,0.25,0.015848931924611127,1,0.6153953470002307
12,682,Increase,0.1,0.25,0.01995262314968879,1,0.7708708490004028
12,683,Control,0.0,0.1,0.01995262314968879,0,99
12,684,Equal,0.1,0.1,0.01995262314968879,0,99
12,685,Control,0.0,0.1,0.025118864315095794,1,0.49025191000009727
12,686,Equal,0.25,0.25,0.031622776601683784,1,0.5411866009999358
12,687,Decrease,0.25,0.1,0.025118864315095794,1,0.5844827010000699
12,688,Control,0.0,0.25,0.012589254117941666,0,0.4358403589999398
12,689,Increase,0.1,0.25,0.015848931924611127,0,99
12,690,Control,0.0,0.25,0.015848931924611127,1,0.49951847100010127
12,691,Control,0.0,0.1,0.01995262314968879,1,0.5769722919999367
12,692,Decrease,0.25,0.1,0.01995262314968879,0,0.6495048900001166
12,693,Decrease,0.25,0.1,0.025118864315095794,1,0.46850937199997134
12,694,Control,0.0,0.25,0.012589254117941666,0,0.8690357939999558
12,695,Control,0.0,0.25,0.015848931924611127,0,99
12,696,Control,0.0,0.1,0.015848931924611127,0,99
12,697,Equal,0.1,0.1,0.025118864315095794,0,99
12,698,Increase,0.1,0.25,0.01995262314968879,0,99
12,699,Increase,0.1,0.25,0.025118864315095794,0,99
12,700,Equal,0.25,0.25,0.02511886431509579,1,0.43831638799974826
12,701,Control,0.0,0.25,0.01995262314968879,0,0.39205756199999087
12,702,Decrease,0.25,0.1,0.01995262314968879,0,0.5560392090001187
12,703,Equal,0.25,0.25,0.01995262314968879,0,99
12,704,Equal,0.1,0.1,0.031622776601683784,1,0.5013738879997618
12,705,Equal,0.25,0.25,0.025118864315095794,0,0.4860087279998879
12,706,Control,0.0,0.25,0.025118864315095794,1,0.6091581480000059
12,707,Decrease,0.25,0.1,0.025118864315095794,0,99
12,708,Equal,0.25,0.25,0.031622776601683784,1,0.42063230799976736
12,709,Equal,0.25,0.25,0.02511886431509579,0,99
12,710,Control,0.0,0.1,0.01995262314968879,0,99
12,711,Equal,0.1,0.1,0.02511886431509579,1,0.40438615099992603
12,712,Control,0.0,0.1,0.025118864315095794,1,0.2635270619998664
12,713,Increase,0.1,0.25,0.031622776601683784,1,0.3155392519997804
12,714,Equal,0.1,0.1,0.01995262314968879,0,99
12,715,Control,0.0,0.25,0.01995262314968879,1,0.5700867330001529
12,716,Decrease,0.25,0.1,0.031622776601683784,0,99
12,717,Equal,0.25,0.25,0.031622776601683784,1,0.3150341339996885
12,718,Equal,0.25,0.25,0.02511886431509579,0,99
12,719,Control,0.0,0.1,0.01995262314968879,1,0.3107265369999368
12,720,Equal_null,0.25,0.25,0.012589254117941666,1,0.4675615419996575
12,721,Increase,0.1,0.25,0.02511886431509579,0,0.5746159049999733
12,722,Control,0.0,0.1,0.015848931924611127,1,0.431773339999836
12,723,Equal,0.25,0.25,0.031622776601683784,1,0.37067049100005534
12,724,Increase,0.1,0.25,0.031622776601683784,1,0.42733265399965603
12,725,Decrease,0.25,0.1,0.03981071705534971,1,0.4475776600002064
12,726,Decrease,0.25,0.1,0.031622776601683784,1,0.3679572209998696
12,727,Equal,0.1,0.1,0.025118864315095794,1,0.4277425180002865
12,728,Control,0.0,0.1,0.012589254117941666,0,0.4628895470000316
12,729,Equal,0.25,0.25,0.02511886431509579,1,0.5861980299996503
12,730,Control,0.0,0.1,0.015848931924611127,0,0.3811981880003259
12,731,Control,0.0,0.25,0.015848931924611127,0,0.3612339159999465
12,732,Control,0.0,0.1,0.01995262314968879,0,0.34860339699980614
12,733,Equal,0.25,0.25,0.01995262314968879,0,99
12,734,Equal,0.25,0.25,0.025118864315095794,0,0.5823429929996564
12,735,Equal,0.1,0.1,0.01995262314968879,1,0.7651507059999858
12,736,Equal,0.1,0.1,0.015848931924611127,0,0.5525633450001806
12,737,Increase,0.1,0.25,0.02511886431509579,1,0.993788386000233
12,738,Equal,0.1,0.1,0.01995262314968879,0,0.5800891379999484
12,739,Control,0.0,0.1,0.025118864315095794,0,0.4060077479998654
12,740,Equal,0.1,0.1,0.025118864315095794,0,99
12,741,Control,0.0,0.25,0.01995262314968879,1,0.49147811299962996
12,742,Equal,0.25,0.25,0.031622776601683784,0,99
12,743,Equal,0.25,0.25,0.03981071705534971,1,0.31487782700014577
12,744,Equal,0.1,0.1,0.031622776601683784,1,0.23004335699988587
12,745,Control,0.0,0.1,0.031622776601683784,1,0.3071753140002329
12,746,Decrease,0.25,0.1,0.02511886431509579,0,99
12,747,Control,0.0,0.25,0.015848931924611127,0,0.39468328400016617
12,748,Equal,0.25,0.25,0.031622776601683784,1,0.2997835619999023
12,749,Decrease,0.25,0.1,0.031622776601683784,1,0.350701380999908
12,750,Decrease,0.25,0.1,0.02511886431509579,0,99
12,751,Decrease,0.25,0.1,0.031622776601683784,0,99
12,752,Decrease_null,0.25,0.1,0.01995262314968879,1,0.5096369120001327
12,753,Increase,0.1,0.25,0.01995262314968879,0,0.45682961700003943
12,754,Increase,0.1,0.25,0.025118864315095794,0,99
12,755,Equal,0.1,0.1,0.02511886431509579,1,0.4470001930003491
12,756,Equal,0.1,0.1,0.01995262314968879,0,0.4661344370001643
12,757,Control,0.0,0.1,0.02511886431509579,1,0.4382346669999606
12,758,Decrease_null,0.25,0.1,0.015848931924611127,1,0.38678677300003983
12,759,Increase,0.1,0.25,0.031622776601683784,1,0.398236141000325
12,760,Increase,0.1,0.25,0.02511886431509579,1,0.41697339700021985
12,761,Control,0.0,0.25,0.01995262314968879,1,0.4007959569999002
12,762,Decrease,0.25,0.1,0.03981071705534971,1,0.3720556690000194
12,763,Decrease,0.25,0.1,0.031622776601683784,1,0.356302438000057
12,764,Control,0.0,0.1,0.01995262314968879,0,0.7048499370002901
12,765,Control,0.0,0.1,0.025118864315095794,0,0.731000989000222
12,766,Decrease,0.25,0.1,0.02511886431509579,1,0.40603251299990006
12,767,Equal_null,0.1,0.1,0.015848931924611127,1,0.4974266230001376
12,768,Control,0.0,0.25,0.015848931924611127,0,0.6045296170000256
12,769,Control,0.0,0.1,0.031622776601683784,1,0.3837236119998124
12,770,Increase,0.1,0.25,0.01995262314968879,1,0.363885873000072
12,771,Decrease,0.25,0.1,0.01995262314968879,1,0.5278052060002665
12,772,Equal,0.1,0.1,0.025118864315095794,1,0.26637219499980347
12,773,Control,0.0,0.25,0.01995262314968879,1,0.3893044789997475
12,774,Equal,0.1,0.1,0.01995262314968879,1,0.5425640630000998
12,775,Equal,0.1,0.1,0.015848931924611127,0,0.4097591480003757
12,776,Control,0.0,0.1,0.02511886431509579,1,0.47388343099964914
12,777,Equal_null,0.1,0.1,0.012589254117941666,1,0.6131714250000186
12,778,Equal,0.1,0.1,0.01995262314968879,1,0.6311811139999008
12,779,Decrease,0.25,0.1,0.015848931924611127,1,0.44359621200010224
12,780,Control,0.0,0.25,0.015848931924611127,1,0.38942529799987824
12,781,Increase_null,0.1,0.25,0.01995262314968879,1,0.43294918700030394
12,782,Increase_null,0.1,0.25,0.015848931924611127,1,0.7080690679999861
12,783,Control,0.0,0.25,0.012589254117941666,0,0.5615834609998274
12,784,Decrease,0.25,0.1,0.012589254117941666,0,0.5814350089999607
12,785,Equal,0.1,0.1,0.015848931924611127,1,0.4157020550001107
12,786,Increase,0.1,0.25,0.015848931924611127,0,0.634832533000008
12,787,Control,0.0,0.1,0.01995262314968879,1,0.4911424840001928
12,788,Increase,0.1,0.25,0.01995262314968879,1,0.4061408570000822
12,789,Control,0.0,0.1,0.015848931924611127,0,0.47865575399964655
12,790,Control,0.0,0.25,0.015848931924611127,0,0.3457039130003068
12,791,Increase,0.1,0.25,0.015848931924611127,0,99
12,792,Control,0.0,0.25,0.01995262314968879,1,0.46265239800004565
12,793,Decrease,0.25,0.1,0.015848931924611127,1,0.45780285099999674
12,794,Equal,0.1,0.1,0.012589254117941666,1,0.39743356799999674
12,795,Decrease,0.25,0.1,0.012589254117941666,0,99
12,796,Decrease,0.25,0.1,0.015848931924611127,1,0.3898765519998051
12,797,Equal,0.1,0.1,0.009999999999999995,0,99
12,798,Control,0.0,0.1,0.01995262314968879,1,0.6680379289996381
12,799,Increase,0.1,0.25,0.01995262314968879,0,0.42313788699993893
12,800,Decrease,0.25,0.1,0.012589254117941666,0,99
12,801,Equal,0.1,0.1,0.012589254117941666,0,0.48275527499981763
12,802,Increase,0.1,0.25,0.025118864315095794,1,0.7078722410001319
12,803,Decrease,0.25,0.1,0.015848931924611127,0,99
12,804,Increase,0.1,0.25,0.01995262314968879,0,99
12,805,Decrease,0.25,0.1,0.01995262314968879,0,0.437443630999951
12,806,Decrease,0.25,0.1,0.025118864315095794,1,0.38462554499983526
12,807,Decrease_null,0.25,0.1,0.012589254117941666,1,0.6676141949997145
12,808,Control,0.0,0.1,0.015848931924611127,0,99
12,809,Control,0.0,0.1,0.01995262314968879,1,0.356423525000082
12,810,Control,0.0,0.1,0.015848931924611127,1,0.5444832829998631
12,811,Increase_null,0.1,0.25,0.012589254117941666,1,0.4576441659996817
12,812,Increase,0.1,0.25,0.025118864315095794,1,0.4366693310003029
12,813,Increase,0.1,0.25,0.01995262314968879,1,0.3578925589999926
12,814,Decrease,0.25,0.1,0.01995262314968879,1,0.7612453070000811
12,815,Increase_null,0.1,0.25,0.009999999999999995,1,0.4653249349998987
12,816,Equal,0.1,0.1,0.015848931924611127,1,1.0521038150000095
12,817,Equal,0.1,0.1,0.012589254117941666,0,99
12,818,Increase,0.1,0.25,0.015848931924611127,0,0.5148643499996979
12,819,Increase,0.1,0.25,0.01995262314968879,0,0.47784620399988853
12,820,Increase,0.1,0.25,0.025118864315095794,1,0.30557439800031716
12,821,Control,0.0,0.1,0.012589254117941666,0,99
12,822,Increase,0.1,0.25,0.01995262314968879,0,0.6257992760001798
12,823,Equal,0.1,0.1,0.015848931924611127,1,0.4951300259999698
12,824,Increase_null,0.1,0.25,0.00794328234724281,0,99
12,825,Equal,0.1,0.1,0.012589254117941666,0,0.483114728000146
12,826,Equal,0.1,0.1,0.015848931924611127,0,99
12,827,Decrease,0.25,0.1,0.015848931924611127,0,99
12,828,Increase,0.1,0.25,0.025118864315095794,0,0.5427694190002512
12,829,Equal,0.1,0.1,0.01995262314968879,0,99
12,830,Decrease,0.25,0.1,0.01995262314968879,1,0.4539897069998915
12,831,Increase,0.1,0.25,0.031622776601683784,1,0.3772541479997926
12,832,Increase,0.1,0.25,0.02511886431509579,1,0.2915745169998445
12,833,Increase,0.1,0.25,0.01995262314968879,0,0.45558612500008167
12,834,Decrease,0.25,0.1,0.015848931924611127,0,99
12,835,Decrease,0.25,0.1,0.01995262314968879,0,99
12,836,Decrease,0.25,0.1,0.025118864315095794,1,0.6275090140002249
12,837,Decrease,0.25,0.1,0.01995262314968879,0,0.3962272829999165
12,838,Increase,0.1,0.25,0.025118864315095794,1,0.5354567919998772
12,839,Increase,0.1,0.25,0.01995262314968879,0,99
