Participant_Number,Trial_Number,Condition,FC_distal,FC_proximal,Target_Contrast,Correct_Response,Reaction_Time
29,0,Control,0.0,0.25,0.1,0,99
29,1,Equal,0.1,0.1,0.1,1,1.2947672240002248
29,2,Increase,0.1,0.25,0.1,1,0.7925610199999937
29,3,Control,0.0,0.25,0.1,1,0.7238307930001611
29,4,Increase,0.1,0.25,0.07943282347242815,1,0.46819429600009244
29,5,Control,0.0,0.25,0.07943282347242815,1,0.431349930000124
29,6,Equal,0.1,0.1,0.07943282347242815,1,0.6113727980000476
29,7,Control,0.0,0.1,0.1,1,0.4676037270000961
29,8,Increase,0.1,0.25,0.06309573444801932,1,0.3028724030000376
29,9,Control,0.0,0.25,0.06309573444801932,1,0.37906536699983917
29,10,Equal,0.25,0.25,0.1,1,0.3343555420001394
29,11,Control,0.0,0.25,0.05011872336272722,1,0.4173884239999097
29,12,Equal,0.25,0.25,0.07943282347242815,1,0.38020458499977394
29,13,Decrease,0.25,0.1,0.1,1,0.3772549660002369
29,14,Control,0.0,0.25,0.03981071705534971,1,0.41269013900000573
29,15,Equal,0.1,0.1,0.06309573444801932,1,0.3430037769999217
29,16,Increase,0.1,0.25,0.05011872336272722,1,0.39435697199996866
29,17,Increase,0.1,0.25,0.03981071705534971,1,0.3306276409998645
29,18,Equal,0.25,0.25,0.06309573444801932,1,0.31737034500019945
29,19,Control,0.0,0.1,0.07943282347242815,1,0.2977427800001351
29,20,Control,0.0,0.25,0.031622776601683784,1,0.45105943199996545
29,21,Decrease,0.25,0.1,0.07943282347242815,1,0.23824193600012222
29,22,Increase,0.1,0.25,0.031622776601683784,1,0.3933911120002449
29,23,Increase,0.1,0.25,0.02511886431509579,1,0.49253803900001003
29,24,Equal,0.1,0.1,0.05011872336272722,1,0.3036748469999111
29,25,Equal,0.1,0.1,0.03981071705534971,1,0.21874310700013666
29,26,Equal,0.25,0.25,0.05011872336272722,1,0.23919780100004573
29,27,Control,0.0,0.25,0.02511886431509579,1,0.33837131899963424
29,28,Control,0.0,0.1,0.06309573444801932,1,0.31557658600013383
29,29,Control,0.0,0.1,0.05011872336272722,1,0.25452578000022186
29,30,Control,0.0,0.25,0.01995262314968879,0,0.7118585009998242
29,31,Control_null,0.0,0.25,0.1,1,0.570680177000213
29,32,Equal,0.1,0.1,0.031622776601683784,0,0.4621556590000182
29,33,Increase,0.1,0.25,0.01995262314968879,0,0.4155195530001947
29,34,Increase,0.1,0.25,0.025118864315095794,0,0.5144534290002412
29,35,Control,0.0,0.1,0.03981071705534971,0,0.4547784810001758
29,36,Equal,0.25,0.25,0.03981071705534971,0,0.38492146399994454
29,37,Equal,0.25,0.25,0.05011872336272721,1,0.34815473299977384
29,38,Increase,0.1,0.25,0.031622776601683784,1,0.3923009590002948
29,39,Equal,0.1,0.1,0.03981071705534971,1,0.3396382920000178
29,40,Control,0.0,0.1,0.05011872336272721,1,0.5037994690001142
29,41,Equal,0.1,0.1,0.031622776601683784,1,0.273163263999777
29,42,Control,0.0,0.1,0.03981071705534971,1,0.3319108400000914
29,43,Control,0.0,0.25,0.025118864315095794,1,0.27724396499979775
29,44,Equal,0.1,0.1,0.02511886431509579,1,0.33649845299987646
29,45,Decrease,0.25,0.1,0.06309573444801932,1,0.33183895999991364
29,46,Increase_null,0.1,0.25,0.1,1,0.7644187169998986
29,47,Equal_null,0.1,0.1,0.1,1,0.5289875040002698
29,48,Decrease,0.25,0.1,0.05011872336272722,1,0.37220995600000606
29,49,Control,0.0,0.1,0.031622776601683784,1,0.3914759170002071
29,50,Equal,0.1,0.1,0.01995262314968879,0,0.46739426299973275
29,51,Decrease,0.25,0.1,0.03981071705534971,1,0.29463899100028357
29,52,Equal,0.25,0.25,0.03981071705534971,1,0.27385160399990127
29,53,Equal,0.1,0.1,0.025118864315095794,1,0.31012320700028795
29,54,Control,0.0,0.1,0.02511886431509579,0,0.3195256359999803
29,55,Increase,0.1,0.25,0.02511886431509579,0,0.39426333599976715
29,56,Equal,0.25,0.25,0.031622776601683784,1,0.2437052280001808
29,57,Control_null,0.0,0.25,0.07943282347242815,1,0.5670001739999861
29,58,Decrease,0.25,0.1,0.031622776601683784,1,0.31281511699990006
29,59,Control,0.0,0.25,0.01995262314968879,0,0.2513957310002297
29,60,Increase,0.1,0.25,0.031622776601683784,1,0.3505784229996607
29,61,Equal,0.1,0.1,0.01995262314968879,0,0.3696281249999629
29,62,Control,0.0,0.25,0.025118864315095794,0,0.5164849679999861
29,63,Increase_null,0.1,0.25,0.07943282347242815,1,0.41018719600015174
29,64,Control,0.0,0.25,0.031622776601683784,0,0.42261077800003477
29,65,Decrease,0.25,0.1,0.02511886431509579,0,0.4802767460000723
29,66,Decrease,0.25,0.1,0.031622776601683784,1,0.4997175490002519
29,67,Equal,0.1,0.1,0.025118864315095794,1,0.5416654880000351
29,68,Control,0.0,0.1,0.031622776601683784,0,0.5046343049998541
29,69,Increase,0.1,0.25,0.02511886431509579,0,0.4262029999999868
29,70,Equal,0.1,0.1,0.01995262314968879,0,0.4843710190002639
29,71,Control,0.0,0.25,0.03981071705534971,0,0.4232075459999578
29,72,Control,0.0,0.25,0.05011872336272721,0,0.5298750370002381
29,73,Decrease,0.25,0.1,0.02511886431509579,0,0.5326535690001037
29,74,Decrease,0.25,0.1,0.031622776601683784,0,0.5130049250001321
29,75,Equal,0.1,0.1,0.025118864315095794,0,0.5803829070000575
29,76,Equal_null,0.25,0.25,0.1,1,0.4821711219997269
29,77,Control,0.0,0.1,0.03981071705534971,0,0.38155012900006113
29,78,Decrease,0.25,0.1,0.03981071705534971,0,0.10269316399990203
29,79,Control,0.0,0.1,0.05011872336272721,0,0.27404528499982916
29,80,Increase,0.1,0.25,0.031622776601683784,0,0.3871287070001017
29,81,Equal_null,0.1,0.1,0.07943282347242815,1,0.39017178999984026
29,82,Decrease,0.25,0.1,0.05011872336272721,0,0.15154846499990526
29,83,Increase,0.1,0.25,0.03981071705534971,1,0.37075656800016077
29,84,Equal,0.25,0.25,0.02511886431509579,0,0.5098814899997706
29,85,Increase,0.1,0.25,0.031622776601683784,0,0.09585277299993322
29,86,Control,0.0,0.1,0.0630957344480193,1,0.4192287790001501
29,87,Decrease,0.25,0.1,0.0630957344480193,1,0.33352142299963816
29,88,Control,0.0,0.1,0.050118723362727206,1,0.32168395400003647
29,89,Control,0.0,0.25,0.0630957344480193,1,0.23801825800001097
29,90,Decrease,0.25,0.1,0.050118723362727206,0,0.5395202180002343
29,91,Control_null,0.0,0.1,0.1,1,0.4921729319999031
29,92,Equal,0.25,0.25,0.031622776601683784,1,0.45528377500022543
29,93,Equal,0.1,0.1,0.031622776601683784,0,0.5035496659997989
29,94,Equal_null,0.25,0.25,0.07943282347242815,1,0.3395494449996477
29,95,Increase,0.1,0.25,0.03981071705534971,1,0.4439836439996725
29,96,Decrease,0.25,0.1,0.0630957344480193,1,0.3671338670001205
29,97,Control,0.0,0.25,0.050118723362727206,1,0.2663157739998496
29,98,Decrease,0.25,0.1,0.050118723362727206,1,0.29360675700036154
29,99,Equal,0.25,0.25,0.02511886431509579,0,0.4326070990000517
29,100,Equal,0.1,0.1,0.03981071705534971,1,0.4998274260001381
29,101,Control,0.0,0.25,0.039810717055349706,1,0.5027049790001001
29,102,Increase,0.1,0.25,0.031622776601683784,0,0.37219396000000415
29,103,Equal,0.1,0.1,0.031622776601683784,1,0.32044224799983567
29,104,Increase,0.1,0.25,0.03981071705534971,1,0.48149878999993234
29,105,Control,0.0,0.25,0.03162277660168378,1,0.3087001170001713
29,106,Control,0.0,0.25,0.025118864315095787,0,0.3100509669998246
29,107,Control,0.0,0.1,0.039810717055349706,1,0.35323183199989217
29,108,Control,0.0,0.25,0.03162277660168378,0,0.6095849809998981
29,109,Equal,0.1,0.1,0.02511886431509579,0,0.38036679500009996
29,110,Decrease,0.25,0.1,0.039810717055349706,1,0.44865752699979566
29,111,Decrease_null,0.25,0.1,0.1,1,0.4913376080003218
29,112,Control,0.0,0.1,0.03162277660168378,0,0.38221554800020385
29,113,Equal,0.25,0.25,0.031622776601683784,1,0.5212457990000985
29,114,Control,0.0,0.1,0.039810717055349706,1,0.3736298989997522
29,115,Equal,0.25,0.25,0.02511886431509579,1,0.29008235099991
29,116,Equal,0.25,0.25,0.01995262314968879,0,0.31100135499991666
29,117,Equal,0.25,0.25,0.025118864315095794,0,0.09610699899985775
29,118,Equal,0.1,0.1,0.031622776601683784,0,0.13121416399962982
29,119,Control,0.0,0.25,0.039810717055349706,0,0.33936141200001657
29,120,Control,0.0,0.25,0.050118723362727206,0,0.5702815179997742
29,121,Equal,0.25,0.25,0.031622776601683784,1,0.5640121320002436
29,122,Control,0.0,0.1,0.03162277660168378,0,0.30298867999999857
29,123,Increase,0.1,0.25,0.031622776601683784,0,0.3772538729999724
29,124,Control,0.0,0.1,0.039810717055349706,1,0.4981401260001803
29,125,Control_null,0.0,0.1,0.07943282347242815,1,0.5095226559997172
29,126,Increase,0.1,0.25,0.03981071705534971,1,0.40868668100029026
29,127,Equal,0.1,0.1,0.03981071705534971,1,0.5237666810003248
29,128,Increase,0.1,0.25,0.031622776601683784,0,0.43215368600021975
29,129,Increase,0.1,0.25,0.03981071705534971,0,0.6193001770002411
29,130,Increase,0.1,0.25,0.05011872336272721,1,0.5918761180000729
29,131,Decrease,0.25,0.1,0.03162277660168378,0,0.372722722999697
29,132,Control,0.0,0.25,0.0630957344480193,1,0.4526717609996922
29,133,Equal,0.1,0.1,0.031622776601683784,0,0.5601201090003087
29,134,Equal,0.1,0.1,0.03981071705534971,1,0.5292588299998897
29,135,Decrease_null,0.25,0.1,0.07943282347242815,1,0.3883577250003327
29,136,Equal,0.1,0.1,0.031622776601683784,1,0.4875200430001314
29,137,Increase,0.1,0.25,0.03981071705534971,1,0.32671448100018097
29,138,Control,0.0,0.1,0.03162277660168378,0,0.514815383000041
29,139,Decrease,0.25,0.1,0.039810717055349706,1,0.3181231779999507
29,140,Control,0.0,0.25,0.050118723362727206,0,0.30535713400013265
29,141,Increase,0.1,0.25,0.031622776601683784,0,0.4045597330000419
29,142,Decrease,0.25,0.1,0.03162277660168378,0,0.23165653300020494
29,143,Equal,0.1,0.1,0.02511886431509579,0,0.4685434489997533
29,144,Control,0.0,0.1,0.039810717055349706,0,0.16897561499990843
29,145,Control,0.0,0.1,0.050118723362727206,1,0.4741360610000811
29,146,Control,0.0,0.1,0.039810717055349706,0,0.22926087999985612
29,147,Control,0.0,0.1,0.050118723362727206,0,0.15866561699976955
29,148,Increase_null,0.1,0.25,0.06309573444801932,1,0.2419333689999803
29,149,Equal_null,0.25,0.25,0.06309573444801932,1,0.29306272699977853
29,150,Control_null,0.0,0.1,0.06309573444801932,1,0.2301513059996978
29,151,Decrease,0.25,0.1,0.039810717055349706,0,0.20130314600010024
29,152,Equal,0.25,0.25,0.02511886431509579,1,0.41190508599993336
29,153,Control_null,0.0,0.25,0.06309573444801932,1,0.20780543399996532
29,154,Equal,0.1,0.1,0.031622776601683784,0,0.13897973999974056
29,155,Equal,0.25,0.25,0.01995262314968879,0,0.07805331000008664
29,156,Equal,0.1,0.1,0.03981071705534971,0,0.050426188000074035
29,157,Increase,0.1,0.25,0.03981071705534971,0,0.14384386699975948
29,158,Equal,0.1,0.1,0.05011872336272721,0,0.03945837399987795
29,159,Equal,0.1,0.1,0.0630957344480193,0,0.018911770999693545
29,160,Decrease,0.25,0.1,0.050118723362727206,1,0.5160606520003057
29,161,Control,0.0,0.1,0.0630957344480193,1,0.31910781399983534
29,162,Control,0.0,0.1,0.050118723362727206,0,0.5924991839997347
29,163,Equal,0.25,0.25,0.025118864315095794,0,0.3875374669996745
29,164,Equal,0.25,0.25,0.031622776601683784,0,0.38266723299966543
29,165,Control,0.0,0.1,0.0630957344480193,1,0.34697979400016266
29,166,Equal,0.25,0.25,0.03981071705534971,0,0.6462145759996929
29,167,Equal,0.1,0.1,0.07943282347242812,1,0.3212890579998202
29,168,Equal,0.25,0.25,0.05011872336272721,0,0.1165732049998951
29,169,Control,0.0,0.25,0.0630957344480193,1,0.48916835599993647
29,170,Equal,0.25,0.25,0.0630957344480193,1,0.3970057770002313
29,171,Control,0.0,0.25,0.050118723362727206,0,0.42965179099974193
29,172,Control,0.0,0.25,0.0630957344480193,1,0.2894112369999675
29,173,Equal,0.1,0.1,0.0630957344480193,1,0.37747756899989326
29,174,Increase,0.1,0.25,0.05011872336272721,0,0.6768055910001749
29,175,Decrease,0.25,0.1,0.039810717055349706,1,0.5349111980003727
29,176,Control,0.0,0.25,0.050118723362727206,0,0.49798962100021527
29,177,Control,0.0,0.25,0.0630957344480193,1,0.2852310949997445
29,178,Control,0.0,0.25,0.050118723362727206,1,0.304172639999706
29,179,Increase,0.1,0.25,0.0630957344480193,1,0.40344604100027937
29,180,Equal,0.25,0.25,0.050118723362727206,1,0.3348363089999111
29,181,Equal,0.1,0.1,0.050118723362727206,1,0.38599999500002014
29,182,Equal,0.1,0.1,0.039810717055349706,1,0.3653612210000574
29,183,Control,0.0,0.25,0.039810717055349706,1,0.49881995999976425
29,184,Equal,0.1,0.1,0.03162277660168378,1,0.3545082790001288
29,185,Equal,0.25,0.25,0.039810717055349706,1,0.1496179209998445
29,186,Control,0.0,0.25,0.03162277660168378,0,0.45379943699981595
29,187,Control,0.0,0.25,0.039810717055349706,1,0.36114853400022184
29,188,Control,0.0,0.25,0.03162277660168378,0,0.31429133699975864
29,189,Increase,0.1,0.25,0.050118723362727206,1,0.44542464699998163
29,190,Decrease,0.25,0.1,0.03162277660168378,0,0.2968486509998911
29,191,Equal,0.25,0.25,0.03162277660168378,0,0.45178302800013626
29,192,Control,0.0,0.25,0.039810717055349706,0,0.4069304730001022
29,193,Increase,0.1,0.25,0.039810717055349706,1,0.39516384900025514
29,194,Increase,0.1,0.25,0.03162277660168378,0,0.26225120300023264
29,195,Equal,0.25,0.25,0.039810717055349706,1,0.26563000699979966
29,196,Control,0.0,0.1,0.050118723362727206,1,0.46174490299972604
29,197,Control,0.0,0.1,0.039810717055349706,0,0.3100105590001476
29,198,Control,0.0,0.1,0.050118723362727206,1,0.44105923200004327
29,199,Increase,0.1,0.25,0.039810717055349706,1,0.3223282419999123
29,200,Control,0.0,0.1,0.039810717055349706,1,0.3653914490000716
29,201,Equal,0.1,0.1,0.025118864315095787,0,0.23054657599959683
29,202,Increase,0.1,0.25,0.03162277660168378,0,0.4340829509997093
29,203,Control,0.0,0.25,0.050118723362727206,1,0.3659512080002969
29,204,Equal,0.1,0.1,0.03162277660168378,0,0.5372181669999918
29,205,Increase,0.1,0.25,0.039810717055349706,0,0.5244697609996365
29,206,Control,0.0,0.25,0.039810717055349706,1,0.3688749729999472
29,207,Decrease,0.25,0.1,0.039810717055349706,1,0.42205749999993714
29,208,Decrease,0.25,0.1,0.03162277660168378,0,0.33508434399982434
29,209,Increase,0.1,0.25,0.050118723362727206,1,0.4899466819997542
29,210,Equal,0.1,0.1,0.039810717055349706,1,0.48243313800003307
29,211,Equal,0.1,0.1,0.03162277660168378,1,0.5736132259999067
29,212,Equal,0.25,0.25,0.03162277660168378,0,0.382651098000224
29,213,Increase_null,0.1,0.25,0.05011872336272722,1,0.2967364619998989
29,214,Increase,0.1,0.25,0.039810717055349706,0,0.37913896200007
29,215,Equal,0.1,0.1,0.025118864315095787,0,0.31833369200012385
29,216,Equal,0.25,0.25,0.039810717055349706,0,0.17735359300013442
29,217,Control,0.0,0.25,0.03162277660168378,0,0.3657274470001539
29,218,Equal,0.1,0.1,0.03162277660168378,0,0.2888982199997372
29,219,Equal,0.25,0.25,0.050118723362727206,1,0.47048425999992105
29,220,Increase_null,0.1,0.25,0.03981071705534971,1,0.22636620599996604
29,221,Equal,0.25,0.25,0.039810717055349706,1,0.3710213589997693
29,222,Decrease,0.25,0.1,0.039810717055349706,0,0.47060628799999904
29,223,Decrease,0.25,0.1,0.050118723362727206,0,0.407927503999872
29,224,Control,0.0,0.25,0.039810717055349706,1,0.29091732599999887
29,225,Equal,0.25,0.25,0.03162277660168378,0,0.09090009000010468
29,226,Increase,0.1,0.25,0.050118723362727206,1,0.25432397000031415
29,227,Equal,0.1,0.1,0.039810717055349706,0,0.23354984100024012
29,228,Control,0.0,0.25,0.03162277660168378,1,0.3725808770000185
29,229,Equal,0.25,0.25,0.039810717055349706,0,0.21569954400001734
29,230,Control,0.0,0.25,0.025118864315095787,0,0.4510364859997935
29,231,Equal,0.1,0.1,0.050118723362727206,1,0.5824372839997523
29,232,Increase,0.1,0.25,0.039810717055349706,1,0.32401052100021843
29,233,Equal,0.1,0.1,0.039810717055349706,0,0.4721710349999739
29,234,Equal_null,0.1,0.1,0.06309573444801932,1,0.3208855410002798
29,235,Decrease,0.25,0.1,0.0630957344480193,1,0.3640603779999765
29,236,Equal,0.1,0.1,0.050118723362727206,1,0.3471050979997017
29,237,Equal,0.1,0.1,0.039810717055349706,0,0.4783929820000594
29,238,Decrease,0.25,0.1,0.050118723362727206,1,0.5105769860001601
29,239,Decrease,0.25,0.1,0.039810717055349706,0,0.2658425259996875
29,240,Control,0.0,0.25,0.03162277660168378,1,0.7488690810000662
29,241,Equal,0.25,0.25,0.050118723362727206,1,0.4942680979997931
29,242,Increase,0.1,0.25,0.03162277660168378,1,0.42530801699967924
29,243,Equal,0.1,0.1,0.050118723362727206,0,0.23536916900002325
29,244,Control,0.0,0.25,0.025118864315095787,0,0.3509179409998069
29,245,Equal,0.25,0.25,0.039810717055349706,1,0.4417095789999621
29,246,Control,0.0,0.25,0.03162277660168378,0,0.4940018410002267
29,247,Control,0.0,0.25,0.039810717055349706,0,0.4664182799997434
29,248,Increase,0.1,0.25,0.025118864315095787,0,0.5023358570001619
29,249,Control,0.0,0.1,0.03162277660168378,0,0.4156382970004415
29,250,Equal,0.25,0.25,0.03162277660168378,0,0.4666387460001715
29,251,Equal,0.25,0.25,0.039810717055349706,1,0.571162371000355
29,252,Equal_null,0.25,0.25,0.05011872336272722,1,0.43100567100009357
29,253,Increase,0.1,0.25,0.03162277660168378,1,0.4343938819997675
29,254,Control,0.0,0.1,0.039810717055349706,0,0.4983533439999519
29,255,Equal,0.1,0.1,0.0630957344480193,1,0.3736467100002301
29,256,Decrease,0.25,0.1,0.050118723362727206,1,0.4650218169999789
29,257,Increase,0.1,0.25,0.025118864315095787,0,0.27692531999991843
29,258,Control,0.0,0.25,0.050118723362727206,0,0.3923138659997676
29,259,Increase,0.1,0.25,0.03162277660168378,0,0.3475193660001423
29,260,Increase,0.1,0.25,0.039810717055349706,1,0.46440285000016956
29,261,Equal,0.1,0.1,0.050118723362727206,0,0.42129077299978235
29,262,Increase,0.1,0.25,0.03162277660168378,1,0.45420747499974823
29,263,Control_null,0.0,0.1,0.05011872336272722,1,0.4171699250000529
29,264,Decrease,0.25,0.1,0.039810717055349706,1,0.29753822799966656
29,265,Increase,0.1,0.25,0.025118864315095787,0,0.309464098999797
29,266,Equal,0.1,0.1,0.0630957344480193,0,0.10485347000030742
29,267,Decrease,0.25,0.1,0.03162277660168378,0,0.056801687000188394
29,268,Increase,0.1,0.25,0.03162277660168378,0,0.0039910959999360784
29,269,Decrease,0.25,0.1,0.039810717055349706,0,0.24722255899996526
29,270,Increase,0.1,0.25,0.039810717055349706,1,0.2833535480003775
29,271,Equal,0.1,0.1,0.07943282347242812,1,0.3347319710001102
29,272,Decrease,0.25,0.1,0.050118723362727206,0,0.37803313699987484
29,273,Control,0.0,0.25,0.0630957344480193,1,0.31092045200011853
29,274,Equal,0.1,0.1,0.0630957344480193,1,0.2757658989999072
29,275,Equal,0.1,0.1,0.050118723362727206,1,0.31652893499995116
29,276,Control,0.0,0.25,0.050118723362727206,1,0.35955588400020133
29,277,Control,0.0,0.1,0.050118723362727206,1,0.33589004899977226
29,278,Decrease,0.25,0.1,0.0630957344480193,1,0.21994020000011005
29,279,Control,0.0,0.1,0.039810717055349706,1,0.2791004530004102
29,280,Control,0.0,0.25,0.039810717055349706,1,0.31946118799987744
29,281,Equal,0.25,0.25,0.03162277660168378,0,0.4917197440004202
29,282,Control,0.0,0.25,0.03162277660168378,0,0.3426136000002771
29,283,Equal,0.1,0.1,0.039810717055349706,1,0.48183927300033247
29,284,Decrease,0.25,0.1,0.050118723362727206,1,0.41204362300004505
29,285,Decrease,0.25,0.1,0.039810717055349706,1,0.5041932750000342
29,286,Equal,0.25,0.25,0.039810717055349706,1,0.38819895699998597
29,287,Equal,0.25,0.25,0.03162277660168378,1,0.3278200649997416
29,288,Control_null,0.0,0.25,0.05011872336272722,1,0.24059352199992645
29,289,Equal,0.25,0.25,0.025118864315095787,0,0.16383016300005693
29,290,Equal,0.25,0.25,0.03162277660168378,0,0.2842945949996647
29,291,Control_null,0.0,0.1,0.03981071705534971,1,0.2242185579998477
29,292,Decrease,0.25,0.1,0.03162277660168378,0,0.2736479240002154
29,293,Equal,0.1,0.1,0.03162277660168378,0,0.27590209999971194
29,294,Equal,0.1,0.1,0.039810717055349706,1,0.3519927590000407
29,295,Increase,0.1,0.25,0.03162277660168378,1,0.3552316439995593
29,296,Equal_null,0.25,0.25,0.03981071705534971,1,0.2063155050000205
29,297,Control,0.0,0.25,0.039810717055349706,0,0.13711179500023718
29,298,Control,0.0,0.25,0.050118723362727206,0,0.1647752569997465
29,299,Equal,0.25,0.25,0.039810717055349706,1,0.3369290129999172
29,300,Control,0.0,0.25,0.0630957344480193,1,0.2697354219999397
29,301,Equal,0.25,0.25,0.03162277660168378,1,0.26107668900021963
29,302,Equal,0.1,0.1,0.03162277660168378,1,0.25641476700002386
29,303,Increase,0.1,0.25,0.025118864315095787,0,0.2978615820002233
29,304,Equal,0.1,0.1,0.025118864315095787,0,0.2520258429999558
29,305,Decrease,0.25,0.1,0.039810717055349706,0,0.47008877300004315
29,306,Equal,0.25,0.25,0.025118864315095787,1,0.3772424650001085
29,307,Decrease,0.25,0.1,0.050118723362727206,0,0.5884558120001202
29,308,Equal,0.25,0.25,0.019952623149688785,0,0.5357343579998997
29,309,Control,0.0,0.25,0.050118723362727206,0,0.5387352739999187
29,310,Control,0.0,0.25,0.0630957344480193,1,0.35893157299960876
29,311,Increase_null,0.1,0.25,0.031622776601683784,1,0.33018812899990735
29,312,Equal,0.1,0.1,0.03162277660168378,0,0.2613467370001672
29,313,Control,0.0,0.1,0.03162277660168378,0,0.3935543890002009
29,314,Equal,0.1,0.1,0.039810717055349706,1,0.4905547690000276
29,315,Increase,0.1,0.25,0.03162277660168378,0,0.5107621920001293
29,316,Control,0.0,0.1,0.039810717055349706,0,0.5671203869997044
29,317,Equal,0.25,0.25,0.025118864315095787,0,0.33835373199963215
29,318,Equal,0.25,0.25,0.03162277660168378,0,0.3954015240001354
29,319,Control,0.0,0.25,0.050118723362727206,0,0.07168364700009988
29,320,Equal,0.1,0.1,0.03162277660168378,1,0.33079875800012815
29,321,Equal,0.25,0.25,0.039810717055349706,1,0.3820034509999459
29,322,Control,0.0,0.1,0.050118723362727206,1,0.3612051770001017
29,323,Equal,0.1,0.1,0.025118864315095787,0,0.340380236999863
29,324,Decrease,0.25,0.1,0.0630957344480193,1,0.4074436579999201
29,325,Increase,0.1,0.25,0.039810717055349706,0,0.3546963680000772
29,326,Control,0.0,0.25,0.0630957344480193,1,0.4943088679997345
29,327,Control_null,0.0,0.25,0.03981071705534971,1,0.21519452299980912
29,328,Equal,0.25,0.25,0.03162277660168378,0,0.07543834300031449
29,329,Equal,0.1,0.1,0.03162277660168378,0,0.3635187780000706
29,330,Increase,0.1,0.25,0.050118723362727206,0,0.40647713299995303
29,331,Control,0.0,0.25,0.050118723362727206,1,0.5529049920000944
29,332,Equal,0.1,0.1,0.039810717055349706,0,0.41197840299992095
29,333,Equal,0.1,0.1,0.050118723362727206,1,0.3659599809998326
29,334,Increase,0.1,0.25,0.0630957344480193,1,0.4413946390000092
29,335,Control,0.0,0.1,0.039810717055349706,0,0.22154621299978317
29,336,Increase,0.1,0.25,0.050118723362727206,0,0.3207466359999671
29,337,Control,0.0,0.25,0.039810717055349706,0,0.3720682870002747
29,338,Equal,0.25,0.25,0.039810717055349706,0,0.3743255979998139
29,339,Control,0.0,0.1,0.050118723362727206,1,0.42772276599998804
29,340,Equal,0.1,0.1,0.039810717055349706,0,0.29963674999999057
29,341,Equal,0.25,0.25,0.050118723362727206,0,0.3263738740001827
29,342,Decrease,0.25,0.1,0.050118723362727206,0,0.5669307799998933
29,343,Control,0.0,0.1,0.039810717055349706,0,0.4900486000001365
29,344,Control,0.0,0.1,0.050118723362727206,1,0.5723911900004168
29,345,Control,0.0,0.25,0.050118723362727206,0,0.4472461539999131
29,346,Increase,0.1,0.25,0.0630957344480193,1,0.48373104199981753
29,347,Decrease,0.25,0.1,0.0630957344480193,1,0.4147952839998652
29,348,Control,0.0,0.25,0.0630957344480193,0,0.46615215499969054
29,349,Decrease,0.25,0.1,0.050118723362727206,0,0.39078891300005125
29,350,Decrease,0.25,0.1,0.0630957344480193,1,0.3534371790001387
29,351,Control,0.0,0.1,0.039810717055349706,0,0.49148733699985314
29,352,Control,0.0,0.1,0.050118723362727206,1,0.5427446100002271
29,353,Increase,0.1,0.25,0.050118723362727206,1,0.455013063000024
29,354,Equal,0.1,0.1,0.050118723362727206,1,0.5781630379997296
29,355,Control,0.0,0.25,0.07943282347242812,1,0.3712748250000004
29,356,Increase,0.1,0.25,0.039810717055349706,0,0.3185966850001023
29,357,Increase,0.1,0.25,0.050118723362727206,1,0.6328089399999044
29,358,Control,0.0,0.1,0.039810717055349706,1,0.5641189170000871
29,359,Increase,0.1,0.25,0.039810717055349706,1,0.2859673580001072
29,360,Control,0.0,0.1,0.03162277660168378,0,0.5681259569996655
29,361,Equal,0.1,0.1,0.039810717055349706,1,0.5150795599997764
29,362,Equal,0.1,0.1,0.03162277660168378,1,0.43037169199988057
29,363,Control_null,0.0,0.25,0.031622776601683784,1,0.45767146100024547
29,364,Control,0.0,0.1,0.039810717055349706,0,0.3890086369997334
29,365,Control,0.0,0.1,0.050118723362727206,1,0.3703693949996705
29,366,Control,0.0,0.25,0.0630957344480193,1,0.3023631949999981
29,367,Control,0.0,0.25,0.050118723362727206,1,0.3201465189999908
29,368,Equal,0.25,0.25,0.0630957344480193,1,0.36368274999995265
29,369,Equal,0.25,0.25,0.050118723362727206,1,0.36372053199966103
29,370,Decrease,0.25,0.1,0.050118723362727206,1,0.3188472209999418
29,371,Control,0.0,0.25,0.039810717055349706,1,0.41631734900010997
29,372,Decrease,0.25,0.1,0.039810717055349706,1,0.4115001709997159
29,373,Equal,0.25,0.25,0.039810717055349706,1,0.4135585710000669
29,374,Equal,0.1,0.1,0.025118864315095787,1,0.4416948989996854
29,375,Increase_null,0.1,0.25,0.02511886431509579,1,0.3888653230001182
29,376,Control,0.0,0.1,0.039810717055349706,0,0.40820704099996874
29,377,Equal,0.25,0.25,0.03162277660168378,0,0.42741682299993045
29,378,Control,0.0,0.25,0.03162277660168378,0,0.38492324200024086
29,379,Equal,0.1,0.1,0.019952623149688785,0,0.4047702840002785
29,380,Equal,0.25,0.25,0.039810717055349706,1,0.7572441309998794
29,381,Decrease,0.25,0.1,0.03162277660168378,0,0.5447780680001415
29,382,Control,0.0,0.25,0.039810717055349706,0,0.36931064600003083
29,383,Control,0.0,0.25,0.050118723362727206,0,0.36449539800014463
29,384,Equal_null,0.1,0.1,0.05011872336272722,1,0.4286698669998259
29,385,Equal,0.25,0.25,0.03162277660168378,0,0.4159428789998856
29,386,Control,0.0,0.25,0.0630957344480193,1,0.44185222499982046
29,387,Equal,0.25,0.25,0.039810717055349706,0,0.8215328930000396
29,388,Control,0.0,0.25,0.050118723362727206,0,0.44034903600004327
29,389,Equal,0.25,0.25,0.050118723362727206,0,0.41956282599994665
29,390,Equal,0.25,0.25,0.0630957344480193,0,0.37569065700017745
29,391,Control,0.0,0.1,0.050118723362727206,0,0.3965213169999515
29,392,Increase_null,0.1,0.25,0.01995262314968879,1,0.2495301849999123
29,393,Control,0.0,0.1,0.0630957344480193,1,0.3532517049998205
29,394,Control,0.0,0.25,0.0630957344480193,0,0.332493599999907
29,395,Increase,0.1,0.25,0.03162277660168378,1,0.38954002399987075
29,396,Control,0.0,0.25,0.07943282347242812,1,0.5048778219997985
29,397,Equal,0.25,0.25,0.07943282347242812,1,0.2567616360001921
29,398,Decrease,0.25,0.1,0.039810717055349706,0,0.4121386540000458
29,399,Equal,0.25,0.25,0.0630957344480193,1,0.3991989559999638
29,400,Control,0.0,0.25,0.0630957344480193,1,0.47543585199991867
29,401,Control,0.0,0.25,0.050118723362727206,1,0.32674877199997354
29,402,Control,0.0,0.25,0.039810717055349706,1,0.2657630229996357
29,403,Control,0.0,0.1,0.050118723362727206,1,0.34146441399980176
29,404,Equal,0.1,0.1,0.025118864315095787,0,0.3458684010001889
29,405,Equal,0.25,0.25,0.050118723362727206,1,0.44687460700015436
29,406,Increase,0.1,0.25,0.025118864315095787,0,0.4078412019998723
29,407,Equal,0.25,0.25,0.039810717055349706,0,0.4511132570000882
29,408,Equal,0.1,0.1,0.03162277660168378,0,0.428207747000215
29,409,Equal,0.1,0.1,0.039810717055349706,1,0.391214817999753
29,410,Equal,0.25,0.25,0.050118723362727206,1,0.3516242850000708
29,411,Control,0.0,0.25,0.03162277660168378,0,0.3315534299999854
29,412,Equal,0.1,0.1,0.03162277660168378,0,0.41480777100014166
29,413,Increase,0.1,0.25,0.03162277660168378,0,0.3138678330001312
29,414,Equal,0.25,0.25,0.039810717055349706,1,0.4612248959997487
29,415,Control,0.0,0.1,0.039810717055349706,0,0.25632223800039355
29,416,Control,0.0,0.25,0.039810717055349706,0,0.2674107880002339
29,417,Equal,0.1,0.1,0.039810717055349706,0,0.18402952500036918
29,418,Control,0.0,0.25,0.050118723362727206,1,0.4613351699999839
29,419,Equal,0.1,0.1,0.050118723362727206,1,0.3180377970002155
29,420,Equal,0.1,0.1,0.039810717055349706,1,0.3212880089999999
29,421,Equal,0.25,0.25,0.03162277660168378,1,0.4494552300002397
29,422,Control,0.0,0.25,0.039810717055349706,0,0.1563254899997446
29,423,Equal,0.25,0.25,0.025118864315095787,0,0.4299426319998929
29,424,Equal,0.25,0.25,0.03162277660168378,0,0.43312450499979605
29,425,Control,0.0,0.1,0.050118723362727206,0,0.1323604310000519
29,426,Control,0.0,0.25,0.050118723362727206,0,0.6244915859997491
29,427,Equal,0.1,0.1,0.03162277660168378,1,0.579619687000104
29,428,Control,0.0,0.1,0.0630957344480193,1,0.5109017019999555
29,429,Increase,0.1,0.25,0.039810717055349706,1,0.3539896880001834
29,430,Control,0.0,0.1,0.050118723362727206,0,0.510777681000036
29,431,Control,0.0,0.25,0.0630957344480193,0,0.4826821070000733
29,432,Equal,0.25,0.25,0.039810717055349706,0,0.37050749300033203
29,433,Equal,0.1,0.1,0.025118864315095787,0,0.4457278330000918
29,434,Control,0.0,0.1,0.0630957344480193,1,0.3830221060002259
29,435,Equal_null,0.25,0.25,0.031622776601683784,1,0.31394535599974915
29,436,Control,0.0,0.25,0.07943282347242812,1,0.3053140260003602
29,437,Control,0.0,0.25,0.0630957344480193,1,0.30151778200024637
29,438,Control,0.0,0.1,0.050118723362727206,1,0.5927212189999409
29,439,Equal,0.25,0.25,0.050118723362727206,0,0.3958349439999438
29,440,Equal,0.1,0.1,0.03162277660168378,0,0.23915372000010393
29,441,Control,0.0,0.1,0.039810717055349706,1,0.4101941909998459
29,442,Equal,0.1,0.1,0.039810717055349706,1,0.29345961799981524
29,443,Equal,0.1,0.1,0.03162277660168378,0,0.6578668090000974
29,444,Equal_null,0.1,0.1,0.03981071705534971,1,0.3992692250003529
29,445,Equal,0.25,0.25,0.0630957344480193,1,0.40673430700007884
29,446,Equal,0.25,0.25,0.050118723362727206,1,0.4102975199998582
29,447,Equal,0.1,0.1,0.039810717055349706,1,0.29931187600004705
29,448,Decrease,0.25,0.1,0.050118723362727206,1,0.5744648019999659
29,449,Control,0.0,0.1,0.03162277660168378,1,0.5037562349998552
29,450,Decrease,0.25,0.1,0.039810717055349706,1,0.386832830000003
29,451,Control,0.0,0.25,0.050118723362727206,1,0.33400270399988585
29,452,Control,0.0,0.25,0.039810717055349706,1,0.40224265200004083
29,453,Equal,0.25,0.25,0.039810717055349706,1,0.3815279239997835
29,454,Increase,0.1,0.25,0.03162277660168378,1,0.49669072500000766
29,455,Control,0.0,0.1,0.025118864315095787,0,0.26761293900017336
29,456,Equal,0.25,0.25,0.03162277660168378,1,0.36058881899998596
29,457,Equal_null,0.1,0.1,0.031622776601683784,1,0.5962991810001768
29,458,Equal,0.25,0.25,0.025118864315095787,0,0.3562016669998229
29,459,Control,0.0,0.1,0.03162277660168378,0,0.27954109600023
29,460,Control,0.0,0.25,0.03162277660168378,0,0.40067367900019235
29,461,Control,0.0,0.25,0.039810717055349706,0,0.6681374899999355
29,462,Equal,0.25,0.25,0.03162277660168378,1,0.41312931399988884
29,463,Increase,0.1,0.25,0.025118864315095787,0,0.3279166490001444
29,464,Equal,0.1,0.1,0.03162277660168378,0,0.4996415209998304
29,465,Decrease,0.25,0.1,0.03162277660168378,0,0.4477466949997506
29,466,Equal,0.1,0.1,0.039810717055349706,0,0.29104455200013035
29,467,Control,0.0,0.25,0.050118723362727206,0,0.31096688199977507
29,468,Equal,0.25,0.25,0.025118864315095787,0,0.20231529099964973
29,469,Control,0.0,0.25,0.0630957344480193,0,0.32584488200018313
29,470,Control,0.0,0.25,0.07943282347242812,0,0.11260469799981365
29,471,Equal,0.1,0.1,0.050118723362727206,1,0.328590308999992
29,472,Control,0.0,0.25,0.09999999999999998,1,0.25995686800024487
29,473,Increase,0.1,0.25,0.03162277660168378,0,0.5572403699998176
29,474,Equal,0.1,0.1,0.039810717055349706,1,0.28837017099976947
29,475,Control,0.0,0.1,0.039810717055349706,1,0.5294708470000842
29,476,Equal,0.1,0.1,0.03162277660168378,1,0.33278268799995203
29,477,Control,0.0,0.25,0.07943282347242812,1,0.4328566899998805
29,478,Increase,0.1,0.25,0.039810717055349706,1,0.39610362900020846
29,479,Equal_null,0.25,0.25,0.02511886431509579,1,0.39938687299991216
29,480,Equal,0.1,0.1,0.025118864315095787,0,0.3692507939999814
29,481,Equal,0.25,0.25,0.03162277660168378,0,0.020086890000129642
29,482,Decrease,0.25,0.1,0.039810717055349706,0,0.15138071799992758
29,483,Equal,0.25,0.25,0.039810717055349706,1,0.3314524239999628
29,484,Control,0.0,0.25,0.0630957344480193,1,0.27202657400039243
29,485,Equal,0.25,0.25,0.03162277660168378,1,0.5221301740002673
29,486,Control,0.0,0.25,0.050118723362727206,0,0.27726656999993793
29,487,Increase,0.1,0.25,0.03162277660168378,0,0.22954376300003787
29,488,Decrease,0.25,0.1,0.050118723362727206,0,0.2167391799998768
29,489,Equal,0.25,0.25,0.025118864315095787,0,0.3055869449999591
29,490,Control,0.0,0.1,0.03162277660168378,0,0.29311228200003825
29,491,Increase,0.1,0.25,0.039810717055349706,0,0.08825697700012824
29,492,Control,0.0,0.25,0.0630957344480193,0,0.18628623199992944
29,493,Control,0.0,0.25,0.07943282347242812,1,0.22148777299980793
29,494,Equal,0.25,0.25,0.03162277660168378,0,0.7926174290000745
29,495,Equal,0.25,0.25,0.039810717055349706,0,0.28422484100019574
29,496,Equal,0.25,0.25,0.050118723362727206,0,0.2799065190001784
29,497,Equal,0.25,0.25,0.0630957344480193,0,0.11798515700002099
29,498,Decrease,0.25,0.1,0.0630957344480193,1,0.2702063899996574
29,499,Equal_null,0.1,0.1,0.02511886431509579,1,0.538784896999914
29,500,Decrease,0.25,0.1,0.050118723362727206,1,0.32297893699978886
29,501,Control,0.0,0.1,0.039810717055349706,0,0.18975507699997252
29,502,Equal,0.25,0.25,0.07943282347242812,1,0.31840960899990023
29,503,Control_null,0.0,0.1,0.031622776601683784,1,0.25748885599978166
29,504,Control,0.0,0.25,0.0630957344480193,0,0.30858860200032723
29,505,Increase,0.1,0.25,0.050118723362727206,0,0.8309685620001801
29,506,Control,0.0,0.25,0.07943282347242812,1,0.5140501660002883
29,507,Equal,0.25,0.25,0.0630957344480193,1,0.5102222129999063
29,508,Control,0.0,0.1,0.050118723362727206,0,0.44947765300003084
29,509,Control,0.0,0.25,0.0630957344480193,1,0.5431342249999034
29,510,Control,0.0,0.1,0.0630957344480193,1,0.5867766780002057
29,511,Equal,0.25,0.25,0.050118723362727206,0,0.4598045720003938
29,512,Control,0.0,0.25,0.050118723362727206,0,0.23911309899995103
29,513,Equal,0.25,0.25,0.0630957344480193,1,0.49635562200001004
29,514,Increase_null,0.1,0.25,0.015848931924611127,1,0.3317376590002823
29,515,Equal,0.25,0.25,0.050118723362727206,0,0.6118290519998482
29,516,Control,0.0,0.1,0.050118723362727206,0,0.5110057409997353
29,517,Equal,0.1,0.1,0.03162277660168378,0,0.4738322870002776
29,518,Control,0.0,0.1,0.0630957344480193,1,0.4053339560000495
29,519,Increase,0.1,0.25,0.0630957344480193,1,0.3604070640003556
29,520,Control,0.0,0.1,0.050118723362727206,1,0.4596535599998788
29,521,Equal,0.25,0.25,0.0630957344480193,1,0.3506765560000531
29,522,Equal,0.25,0.25,0.050118723362727206,1,0.5485410769997543
29,523,Control,0.0,0.1,0.039810717055349706,1,0.3927946129997508
29,524,Control,0.0,0.1,0.03162277660168378,0,0.28942833900009646
29,525,Control,0.0,0.25,0.0630957344480193,1,0.38157744700038165
29,526,Increase,0.1,0.25,0.050118723362727206,1,0.45384690500031866
29,527,Equal,0.25,0.25,0.039810717055349706,0,0.30482639499996367
29,528,Equal,0.1,0.1,0.039810717055349706,0,0.33735487800004194
29,529,Equal,0.25,0.25,0.050118723362727206,1,0.41340328299975226
29,530,Equal,0.25,0.25,0.039810717055349706,1,0.4006429749997551
29,531,Control_null,0.0,0.1,0.02511886431509579,1,0.2428120949998629
29,532,Control,0.0,0.25,0.050118723362727206,0,0.40604289700013396
29,533,Control,0.0,0.25,0.0630957344480193,1,0.47304477700026837
29,534,Control,0.0,0.1,0.039810717055349706,0,0.31590527200023644
29,535,Increase,0.1,0.25,0.039810717055349706,1,0.2969215759999315
29,536,Control,0.0,0.25,0.050118723362727206,0,0.3012818839997635
29,537,Equal,0.25,0.25,0.03162277660168378,0,0.29390874999990046
29,538,Control,0.0,0.1,0.050118723362727206,1,0.46478165500002433
29,539,Control,0.0,0.25,0.0630957344480193,0,0.32902472200021293
29,540,Equal,0.1,0.1,0.050118723362727206,1,0.4685220390001632
29,541,Equal_null,0.25,0.25,0.01995262314968879,1,0.28547909400003846
29,542,Decrease,0.25,0.1,0.039810717055349706,0,0.2888344299999517
29,543,Equal,0.25,0.25,0.039810717055349706,0,0.3078773669999464
29,544,Decrease,0.25,0.1,0.050118723362727206,0,0.19104444599997805
29,545,Increase_null,0.1,0.25,0.012589254117941666,1,0.29010598499962725
29,546,Control,0.0,0.25,0.07943282347242812,1,0.5094399720001093
29,547,Decrease_null,0.25,0.1,0.06309573444801932,1,0.3616787259998091
29,548,Control,0.0,0.25,0.0630957344480193,1,0.4624029189999419
29,549,Control,0.0,0.1,0.039810717055349706,1,0.42711329299982026
29,550,Control,0.0,0.25,0.050118723362727206,1,0.5392103369999859
29,551,Increase,0.1,0.25,0.03162277660168378,0,0.3343610280003304
29,552,Control,0.0,0.25,0.039810717055349706,0,0.25556125000002794
29,553,Control,0.0,0.1,0.03162277660168378,0,0.1388281590002407
29,554,Control,0.0,0.1,0.039810717055349706,0,0.3311177119999229
29,555,Increase,0.1,0.25,0.039810717055349706,1,0.382103828000254
29,556,Equal,0.1,0.1,0.039810717055349706,0,0.24242113599984805
29,557,Increase,0.1,0.25,0.03162277660168378,0,0.013458413000080327
29,558,Increase,0.1,0.25,0.039810717055349706,0,0.1847347829998398
29,559,Equal,0.25,0.25,0.050118723362727206,0,0.5160538509999242
29,560,Equal,0.25,0.25,0.0630957344480193,1,0.4713144529996498
29,561,Equal,0.1,0.1,0.050118723362727206,0,0.2996576630002892
29,562,Equal,0.1,0.1,0.0630957344480193,1,0.3360038959999656
29,563,Control,0.0,0.1,0.050118723362727206,1,0.34570640900028593
29,564,Control,0.0,0.25,0.050118723362727206,0,0.171926509000059
29,565,Decrease,0.25,0.1,0.0630957344480193,1,0.3169640559999607
29,566,Increase,0.1,0.25,0.050118723362727206,0,0.35996906899981695
29,567,Control,0.0,0.25,0.0630957344480193,1,0.337449984000159
29,568,Equal,0.25,0.25,0.050118723362727206,1,0.531955643999936
29,569,Equal,0.1,0.1,0.050118723362727206,1,0.4318851960001666
29,570,Decrease,0.25,0.1,0.050118723362727206,0,0.4830693980002252
29,571,Equal,0.1,0.1,0.039810717055349706,0,0.4618651129999307
29,572,Equal_null,0.25,0.25,0.015848931924611127,1,0.5143257839999933
29,573,Control,0.0,0.1,0.039810717055349706,0,0.4775563149996742
29,574,Equal,0.1,0.1,0.050118723362727206,0,0.5702578839996022
29,575,Control,0.0,0.1,0.050118723362727206,0,0.4305749449999894
29,576,Equal,0.1,0.1,0.0630957344480193,1,0.42298168999968766
29,577,Control,0.0,0.25,0.050118723362727206,0,0.3462940139997954
29,578,Equal,0.25,0.25,0.039810717055349706,0,0.4103840460002175
29,579,Equal,0.25,0.25,0.050118723362727206,0,0.37370601299971895
29,580,Increase,0.1,0.25,0.0630957344480193,1,0.4067563200001132
29,581,Decrease,0.25,0.1,0.0630957344480193,1,0.3150643270000728
29,582,Decrease,0.25,0.1,0.050118723362727206,1,0.4623375749997649
29,583,Control,0.0,0.1,0.0630957344480193,1,0.4096226410001691
29,584,Control,0.0,0.25,0.0630957344480193,1,0.2687738499998886
29,585,Equal,0.1,0.1,0.050118723362727206,1,0.37562544499996875
29,586,Control,0.0,0.1,0.050118723362727206,1,0.30684758300003523
29,587,Equal,0.1,0.1,0.039810717055349706,1,0.41417721900006654
29,588,Control,0.0,0.1,0.039810717055349706,0,0.2519618590004029
29,589,Increase_null,0.1,0.25,0.009999999999999995,1,0.19646949099978883
29,590,Equal,0.1,0.1,0.03162277660168378,0,0.3276904489998742
29,591,Equal,0.25,0.25,0.0630957344480193,1,0.36004641299996365
29,592,Increase,0.1,0.25,0.050118723362727206,1,0.40274095799986753
29,593,Control,0.0,0.1,0.050118723362727206,0,0.292005675999917
29,594,Decrease,0.25,0.1,0.039810717055349706,1,0.3755164369999875
29,595,Control,0.0,0.1,0.0630957344480193,1,0.5066301589999966
29,596,Control,0.0,0.1,0.050118723362727206,1,0.33387403699998686
29,597,Equal,0.1,0.1,0.039810717055349706,0,0.19298162099994443
29,598,Equal,0.1,0.1,0.050118723362727206,1,0.3161822810002377
29,599,Equal,0.25,0.25,0.050118723362727206,0,0.431438203000198
29,600,Control,0.0,0.1,0.039810717055349706,0,0.32843910900010087
29,601,Control,0.0,0.25,0.050118723362727206,0,0.275953018999644
29,602,Equal,0.1,0.1,0.039810717055349706,0,0.23059768499979327
29,603,Equal,0.25,0.25,0.0630957344480193,1,0.3226628869997512
29,604,Increase,0.1,0.25,0.039810717055349706,0,0.3678430650002156
29,605,Equal,0.1,0.1,0.050118723362727206,0,0.18617688399990584
29,606,Control,0.0,0.25,0.0630957344480193,1,0.267412886999864
29,607,Equal,0.25,0.25,0.050118723362727206,0,0.27042849899999055
29,608,Control,0.0,0.25,0.050118723362727206,0,0.38286938400005965
29,609,Decrease,0.25,0.1,0.03162277660168378,0,0.40190904800010685
29,610,Equal,0.25,0.25,0.0630957344480193,0,0.24419238800010135
29,611,Control,0.0,0.1,0.050118723362727206,0,0.3913342430000739
29,612,Equal,0.1,0.1,0.0630957344480193,1,0.37844463400006134
29,613,Equal,0.1,0.1,0.050118723362727206,0,0.33392197300008775
29,614,Control,0.0,0.1,0.0630957344480193,0,0.16106725800000277
29,615,Control,0.0,0.1,0.07943282347242812,0,0.07559327099988877
29,616,Control,0.0,0.1,0.09999999999999998,1,0.26525005500025145
29,617,Control,0.0,0.1,0.07943282347242812,1,0.3153939320000063
29,618,Increase,0.1,0.25,0.050118723362727206,1,0.38366312300013306
29,619,Equal,0.25,0.25,0.07943282347242812,1,0.44778118800013544
29,620,Equal,0.25,0.25,0.0630957344480193,1,0.3071818009998424
29,621,Decrease,0.25,0.1,0.039810717055349706,1,0.332202640000105
29,622,Equal,0.25,0.25,0.050118723362727206,1,0.5274376239999583
29,623,Decrease,0.25,0.1,0.03162277660168378,0,0.6017371050002112
29,624,Increase,0.1,0.25,0.039810717055349706,0,0.35701159600012033
29,625,Equal,0.25,0.25,0.039810717055349706,0,0.38390279299983376
29,626,Control,0.0,0.25,0.0630957344480193,1,0.29112247200009733
29,627,Equal,0.25,0.25,0.050118723362727206,1,0.29529348000005484
29,628,Equal,0.25,0.25,0.039810717055349706,1,0.3235489090002375
29,629,Control,0.0,0.25,0.050118723362727206,0,0.4076650199999676
29,630,Decrease_null,0.25,0.1,0.05011872336272722,1,0.40186297500031287
29,631,Decrease,0.25,0.1,0.039810717055349706,1,0.5020064689997525
29,632,Control_null,0.0,0.25,0.02511886431509579,1,0.550241073000052
29,633,Decrease,0.25,0.1,0.03162277660168378,0,0.3455998859999454
29,634,Equal,0.25,0.25,0.03162277660168378,1,0.35472895300017626
29,635,Control,0.0,0.25,0.0630957344480193,1,0.3657649369997671
29,636,Decrease,0.25,0.1,0.039810717055349706,1,0.30272089000027336
29,637,Decrease,0.25,0.1,0.03162277660168378,0,0.3621106600003259
29,638,Equal,0.25,0.25,0.025118864315095787,0,0.5253347630000462
29,639,Increase,0.1,0.25,0.050118723362727206,0,0.4497122739999213
29,640,Equal,0.25,0.25,0.03162277660168378,0,0.40616398400015896
29,641,Control,0.0,0.1,0.0630957344480193,1,0.46670836800012694
29,642,Equal,0.25,0.25,0.039810717055349706,0,0.5332792320000408
29,643,Increase,0.1,0.25,0.0630957344480193,1,0.46337772600008975
29,644,Decrease,0.25,0.1,0.039810717055349706,0,0.47544641400008913
29,645,Control,0.0,0.1,0.050118723362727206,0,0.596659678999913
29,646,Increase,0.1,0.25,0.050118723362727206,1,0.30399427000020296
29,647,Control,0.0,0.1,0.0630957344480193,1,0.3442895520001912
29,648,Decrease,0.25,0.1,0.050118723362727206,0,0.2820138960000804
29,649,Control,0.0,0.1,0.050118723362727206,0,0.3255105069997626
29,650,Increase,0.1,0.25,0.039810717055349706,0,0.31254566200004774
29,651,Equal,0.1,0.1,0.0630957344480193,1,0.3797281719998864
29,652,Increase,0.1,0.25,0.050118723362727206,0,0.374826512999789
29,653,Control,0.0,0.1,0.0630957344480193,1,0.4835390340003869
29,654,Control,0.0,0.1,0.050118723362727206,1,0.45734357399987857
29,655,Equal,0.1,0.1,0.050118723362727206,1,0.38069467900004383
29,656,Decrease,0.25,0.1,0.0630957344480193,1,0.34961710400011725
29,657,Control,0.0,0.1,0.039810717055349706,1,0.45679764299984527
29,658,Equal,0.25,0.25,0.050118723362727206,1,0.35321571099984794
29,659,Equal,0.25,0.25,0.039810717055349706,0,0.4602143160000196
29,660,Increase,0.1,0.25,0.0630957344480193,1,0.3005530609998459
29,661,Equal,0.1,0.1,0.039810717055349706,1,0.3356171020000147
29,662,Control,0.0,0.25,0.050118723362727206,1,0.5550109109999539
29,663,Equal,0.1,0.1,0.03162277660168378,1,0.4780701949998729
29,664,Control,0.0,0.1,0.03162277660168378,0,0.3291111670000646
29,665,Equal,0.25,0.25,0.050118723362727206,0,0.40443266099964603
29,666,Decrease,0.25,0.1,0.050118723362727206,1,0.4331444399999782
29,667,Increase,0.1,0.25,0.050118723362727206,1,0.3825530650001383
29,668,Increase_null,0.1,0.25,0.00794328234724281,1,0.5045774360000905
29,669,Equal,0.1,0.1,0.025118864315095787,0,0.371106859000065
29,670,Control,0.0,0.25,0.039810717055349706,0,0.366443309999795
29,671,Equal,0.25,0.25,0.0630957344480193,1,0.35138632600001074
29,672,Control,0.0,0.1,0.039810717055349706,1,0.41868539899996904
29,673,Control,0.0,0.25,0.050118723362727206,1,0.3227557549998892
29,674,Equal,0.25,0.25,0.050118723362727206,0,0.3099938100003783
29,675,Equal,0.1,0.1,0.03162277660168378,0,0.26519434400006503
29,676,Control,0.0,0.25,0.039810717055349706,1,0.4286150850002741
29,677,Control,0.0,0.1,0.03162277660168378,0,0.27973886000017956
29,678,Decrease,0.25,0.1,0.039810717055349706,1,0.29871975900005054
29,679,Equal,0.1,0.1,0.039810717055349706,0,0.28815041100006056
29,680,Equal,0.1,0.1,0.050118723362727206,0,0.3563375610001458
29,681,Control,0.0,0.25,0.03162277660168378,0,0.3825047740001537
29,682,Equal,0.1,0.1,0.0630957344480193,1,0.3696471999996902
29,683,Decrease,0.25,0.1,0.03162277660168378,1,0.3326460829998723
29,684,Equal,0.1,0.1,0.050118723362727206,0,0.20599349099984465
29,685,Equal,0.25,0.25,0.0630957344480193,1,0.31987176099983117
29,686,Control,0.0,0.1,0.039810717055349706,1,0.448280641999645
29,687,Equal,0.1,0.1,0.0630957344480193,1,0.5071042209997358
29,688,Control_null,0.0,0.25,0.01995262314968879,1,0.30274017699957767
29,689,Increase,0.1,0.25,0.039810717055349706,1,0.5459132900000441
29,690,Control,0.0,0.1,0.03162277660168378,0,0.3572342400002526
29,691,Control,0.0,0.1,0.039810717055349706,0,0.40834382899993216
29,692,Equal,0.1,0.1,0.050118723362727206,0,0.6686851059998844
29,693,Control,0.0,0.1,0.050118723362727206,0,0.5609367500001099
29,694,Control,0.0,0.25,0.039810717055349706,1,0.398576502999731
29,695,Increase,0.1,0.25,0.03162277660168378,0,0.3427517899999657
29,696,Equal,0.25,0.25,0.050118723362727206,1,0.37930604100029086
29,697,Decrease,0.25,0.1,0.025118864315095787,0,0.41909158999987994
29,698,Control,0.0,0.1,0.0630957344480193,1,0.4225962319997052
29,699,Control,0.0,0.1,0.050118723362727206,0,0.3828893849999986
29,700,Control,0.0,0.1,0.0630957344480193,1,0.4100503839999874
29,701,Control,0.0,0.1,0.050118723362727206,0,0.49406851599997026
29,702,Equal,0.1,0.1,0.0630957344480193,1,0.2812275729997964
29,703,Equal,0.1,0.1,0.050118723362727206,1,0.38055850299997473
29,704,Decrease,0.25,0.1,0.03162277660168378,1,0.38382928400005767
29,705,Decrease,0.25,0.1,0.025118864315095787,0,0.33187215899988587
29,706,Control_null,0.0,0.25,0.015848931924611127,1,0.2814236849999361
29,707,Equal,0.1,0.1,0.039810717055349706,1,0.44599307900034546
29,708,Control,0.0,0.1,0.0630957344480193,0,0.4383690810000189
29,709,Equal,0.1,0.1,0.03162277660168378,0,0.8093260959999498
29,710,Decrease,0.25,0.1,0.03162277660168378,0,0.42686256500019226
29,711,Control,0.0,0.1,0.07943282347242812,1,0.36611205999997765
29,712,Decrease,0.25,0.1,0.039810717055349706,1,0.33418298599963236
29,713,Decrease,0.25,0.1,0.03162277660168378,1,0.34629842999993343
29,714,Equal,0.1,0.1,0.039810717055349706,1,0.3736456029996589
29,715,Control,0.0,0.1,0.0630957344480193,1,0.3848627249999481
29,716,Equal,0.1,0.1,0.03162277660168378,1,0.412197770000148
29,717,Control,0.0,0.1,0.050118723362727206,0,0.22300272799975573
29,718,Equal_null,0.1,0.1,0.01995262314968879,1,0.226535702000092
29,719,Control_null,0.0,0.25,0.012589254117941666,1,0.16784862900021835
29,720,Decrease,0.25,0.1,0.025118864315095787,1,0.26370312300059595
29,721,Decrease_null,0.25,0.1,0.03981071705534971,1,0.2401135879999856
29,722,Control,0.0,0.1,0.0630957344480193,0,0.17946770700018533
29,723,Control,0.0,0.1,0.07943282347242812,1,0.44346638600018196
29,724,Decrease,0.25,0.1,0.019952623149688785,0,0.32694372100013425
29,725,Control,0.0,0.1,0.0630957344480193,0,0.44097954300013953
29,726,Control,0.0,0.1,0.07943282347242812,1,0.49205522800002655
29,727,Control,0.0,0.1,0.0630957344480193,1,0.3674604530006036
29,728,Decrease,0.25,0.1,0.025118864315095787,0,0.20254761900014273
29,729,Decrease,0.25,0.1,0.03162277660168378,0,0.19781285200042475
29,730,Decrease,0.25,0.1,0.039810717055349706,1,0.3687805660001686
29,731,Decrease,0.25,0.1,0.03162277660168378,0,0.18104219999986526
29,732,Increase,0.1,0.25,0.039810717055349706,0,0.12947793700004695
29,733,Control,0.0,0.1,0.050118723362727206,0,0.2302733590004209
29,734,Control,0.0,0.1,0.0630957344480193,0,0.06165174400030082
29,735,Decrease,0.25,0.1,0.039810717055349706,0,0.3287495360000321
29,736,Increase,0.1,0.25,0.050118723362727206,1,0.3759786760001589
29,737,Decrease,0.25,0.1,0.050118723362727206,1,0.34708830199997465
29,738,Decrease,0.25,0.1,0.039810717055349706,1,0.4292910619997201
29,739,Control,0.0,0.1,0.07943282347242812,1,0.39250119799999084
29,740,Decrease,0.25,0.1,0.03162277660168378,0,0.2915995600005772
29,741,Control,0.0,0.1,0.0630957344480193,1,0.35904418700010865
29,742,Decrease,0.25,0.1,0.039810717055349706,0,0.6183112430007895
29,743,Decrease,0.25,0.1,0.050118723362727206,0,0.37424023400035367
29,744,Decrease,0.25,0.1,0.0630957344480193,1,0.3306346849994952
29,745,Decrease,0.25,0.1,0.050118723362727206,1,0.29504015000020445
29,746,Increase,0.1,0.25,0.039810717055349706,1,0.297703072999866
29,747,Decrease,0.25,0.1,0.039810717055349706,1,0.30601172000024235
29,748,Increase,0.1,0.25,0.03162277660168378,0,0.6614780219997556
29,749,Decrease,0.25,0.1,0.03162277660168378,0,0.19838630999947782
29,750,Decrease,0.25,0.1,0.039810717055349706,0,0.15355079299934005
29,751,Increase_null,0.1,0.25,0.0063095734448019285,1,0.29078352699980314
29,752,Decrease,0.25,0.1,0.050118723362727206,1,0.3738541860002442
29,753,Increase,0.1,0.25,0.039810717055349706,0,0.4499943359996905
29,754,Increase,0.1,0.25,0.050118723362727206,0,0.5095704679997652
29,755,Increase_null,0.1,0.25,0.005011872336272719,1,0.39243384700057504
29,756,Increase,0.1,0.25,0.0630957344480193,1,0.42057012199984456
29,757,Decrease,0.25,0.1,0.039810717055349706,1,0.41609941299975617
29,758,Control,0.0,0.1,0.050118723362727206,1,0.6116794339995977
29,759,Control,0.0,0.1,0.039810717055349706,0,0.4702814620004574
29,760,Decrease,0.25,0.1,0.03162277660168378,1,0.5823863129999154
29,761,Equal_null,0.1,0.1,0.015848931924611127,1,0.3534864729999754
29,762,Decrease,0.25,0.1,0.025118864315095787,0,0.7705346040002041
29,763,Increase,0.1,0.25,0.050118723362727206,1,0.4300297720001254
29,764,Control,0.0,0.1,0.050118723362727206,0,0.09622973800014734
29,765,Increase,0.1,0.25,0.039810717055349706,0,0.32351669400031824
29,766,Decrease,0.25,0.1,0.03162277660168378,0,0.37465888499991706
29,767,Increase,0.1,0.25,0.050118723362727206,1,0.4174566399997275
29,768,Decrease,0.25,0.1,0.039810717055349706,1,0.4205387689999043
29,769,Decrease,0.25,0.1,0.03162277660168378,0,0.2639851499998258
29,770,Increase,0.1,0.25,0.039810717055349706,0,0.2853612049993899
29,771,Decrease,0.25,0.1,0.039810717055349706,1,0.36756083799991757
29,772,Decrease,0.25,0.1,0.03162277660168378,0,0.30666679499972815
29,773,Control_null,0.0,0.25,0.009999999999999995,1,0.25973175000035553
29,774,Increase,0.1,0.25,0.050118723362727206,0,0.3109960530000535
29,775,Decrease,0.25,0.1,0.039810717055349706,0,0.27125399299984565
29,776,Decrease,0.25,0.1,0.050118723362727206,1,0.3703363190006712
29,777,Increase,0.1,0.25,0.0630957344480193,1,0.3086200899997493
29,778,Increase,0.1,0.25,0.050118723362727206,0,0.2808565619998262
29,779,Decrease,0.25,0.1,0.039810717055349706,0,0.1630307699997502
29,780,Equal_null,0.1,0.1,0.012589254117941666,1,0.18220089499936876
29,781,Decrease,0.25,0.1,0.050118723362727206,0,0.17838380800003506
29,782,Increase,0.1,0.25,0.0630957344480193,1,0.4239165940007297
29,783,Increase,0.1,0.25,0.050118723362727206,1,0.35459365700080525
29,784,Decrease,0.25,0.1,0.0630957344480193,0,0.3171165519997885
29,785,Increase,0.1,0.25,0.039810717055349706,0,0.26417917699927784
29,786,Increase,0.1,0.25,0.050118723362727206,1,0.5843380890000844
29,787,Increase,0.1,0.25,0.039810717055349706,0,0.24373012900014146
29,788,Decrease,0.25,0.1,0.07943282347242812,1,0.27535553500001697
29,789,Equal_null,0.1,0.1,0.009999999999999995,1,0.3667961840001226
29,790,Decrease,0.25,0.1,0.0630957344480193,1,0.5450264179999067
29,791,Increase,0.1,0.25,0.050118723362727206,1,0.4123761029995876
29,792,Control_null,0.0,0.25,0.00794328234724281,1,0.3673660810000001
29,793,Increase,0.1,0.25,0.039810717055349706,0,0.25072474799981137
29,794,Equal_null,0.25,0.25,0.012589254117941666,1,0.2627551739997216
29,795,Equal_null,0.1,0.1,0.00794328234724281,1,0.19404632999976457
29,796,Increase,0.1,0.25,0.050118723362727206,0,0.14188672799991764
29,797,Decrease,0.25,0.1,0.050118723362727206,1,0.47251950400004716
29,798,Increase,0.1,0.25,0.0630957344480193,1,0.3236549109997213
29,799,Increase,0.1,0.25,0.050118723362727206,1,0.37150043199926586
29,800,Decrease,0.25,0.1,0.039810717055349706,0,0.0949426939996556
29,801,Increase,0.1,0.25,0.039810717055349706,0,0.008145920000060869
29,802,Decrease,0.25,0.1,0.050118723362727206,0,0.06713043099989591
29,803,Increase,0.1,0.25,0.050118723362727206,0,0.07720040399999561
29,804,Decrease_null,0.25,0.1,0.031622776601683784,1,0.20039911800085974
29,805,Increase,0.1,0.25,0.0630957344480193,0,0.06837938999979087
29,806,Decrease,0.25,0.1,0.0630957344480193,1,0.33609191400046257
29,807,Decrease,0.25,0.1,0.050118723362727206,1,0.40288158299972565
29,808,Increase,0.1,0.25,0.07943282347242812,1,0.481224363000365
29,809,Decrease,0.25,0.1,0.039810717055349706,1,0.3487567090005541
29,810,Decrease,0.25,0.1,0.03162277660168378,0,0.3654746289994364
29,811,Increase,0.1,0.25,0.0630957344480193,1,0.39294543100004375
29,812,Control_null,0.0,0.25,0.0063095734448019285,1,0.2732421840000825
29,813,Increase,0.1,0.25,0.050118723362727206,1,0.4213389289998304
29,814,Increase,0.1,0.25,0.039810717055349706,1,0.5256480979996923
29,815,Decrease,0.25,0.1,0.039810717055349706,0,0.3446784409998145
29,816,Increase,0.1,0.25,0.03162277660168378,0,0.4919198540001162
29,817,Decrease,0.25,0.1,0.050118723362727206,0,0.3670458040005542
29,818,Equal_null,0.25,0.25,0.009999999999999995,1,0.38635065899961774
29,819,Control_null,0.0,0.25,0.005011872336272719,1,0.35723566499927983
29,820,Control_null,0.0,0.1,0.01995262314968879,1,0.2900955340001019
29,821,Decrease_null,0.25,0.1,0.02511886431509579,1,0.4861113920005664
29,822,Equal_null,0.25,0.25,0.00794328234724281,1,0.3550969839998288
29,823,Equal_null,0.1,0.1,0.0063095734448019285,1,0.18822821599951567
29,824,Equal_null,0.1,0.1,0.005011872336272719,1,0.2633345949998329
29,825,Decrease_null,0.25,0.1,0.01995262314968879,1,0.32037414200021885
29,826,Control_null,0.0,0.1,0.015848931924611127,1,0.28381304499998805
29,827,Equal_null,0.25,0.25,0.0063095734448019285,1,0.31587664099970425
29,828,Decrease_null,0.25,0.1,0.015848931924611127,1,0.21513307500026713
29,829,Control_null,0.0,0.1,0.012589254117941666,1,0.10620799200023612
29,830,Decrease_null,0.25,0.1,0.012589254117941666,1,0.19715964199986047
29,831,Equal_null,0.25,0.25,0.005011872336272719,1,0.2236832679991494
29,832,Control_null,0.0,0.1,0.009999999999999995,1,0.44286943200040696
29,833,Decrease_null,0.25,0.1,0.009999999999999995,1,0.2702532710000014
29,834,Control_null,0.0,0.1,0.00794328234724281,1,0.32433683199997176
29,835,Decrease_null,0.25,0.1,0.00794328234724281,1,0.36107937800079526
29,836,Decrease_null,0.25,0.1,0.0063095734448019285,1,0.16063461400062806
29,837,Control_null,0.0,0.1,0.0063095734448019285,1,0.12363437200019689
29,838,Control_null,0.0,0.1,0.005011872336272719,1,0.20502535600007832
29,839,Decrease_null,0.25,0.1,0.005011872336272719,1,0.2240810129997044
