Participant_Number,Trial_Number,Condition,FC_distal,FC_proximal,Target_Contrast,Correct_Response,Reaction_Time
24,0,Equal,0.1,0.1,0.1,1,0.9723045749997254
24,1,Control,0.0,0.25,0.1,0,0.8043320690012479
24,2,Equal,0.25,0.25,0.1,1,0.6085728199996083
24,3,Control,0.0,0.25,0.1,1,0.6017059260011592
24,4,Equal,0.25,0.25,0.07943282347242815,1,0.4289052919993992
24,5,Control,0.0,0.1,0.1,1,0.4161848249987088
24,6,Control,0.0,0.1,0.07943282347242815,1,0.3710239880001609
24,7,Control,0.0,0.1,0.06309573444801932,1,0.4394335240012879
24,8,Equal,0.25,0.25,0.06309573444801932,1,0.3152657519985951
24,9,Increase,0.1,0.25,0.1,1,0.5496503269987443
24,10,Increase,0.1,0.25,0.07943282347242815,1,0.5291300619992398
24,11,Increase,0.1,0.25,0.06309573444801932,1,0.5002963119986816
24,12,Control,0.0,0.1,0.05011872336272722,1,0.3813171070014505
24,13,Control,0.0,0.1,0.03981071705534971,1,0.2565594979987509
24,14,Equal,0.1,0.1,0.07943282347242815,1,0.2807000649991096
24,15,Control,0.0,0.1,0.031622776601683784,1,0.26088383400019666
24,16,Control,0.0,0.25,0.07943282347242815,1,0.5741668569989997
24,17,Equal,0.25,0.25,0.05011872336272722,1,0.5771469499995874
24,18,Decrease,0.25,0.1,0.1,1,0.5722475719994691
24,19,Increase,0.1,0.25,0.05011872336272722,1,0.4568292619987915
24,20,Control,0.0,0.1,0.02511886431509579,1,0.49992714099971636
24,21,Equal,0.1,0.1,0.06309573444801932,1,0.45498675700036983
24,22,Equal,0.25,0.25,0.03981071705534971,1,0.5873674689992185
24,23,Increase,0.1,0.25,0.03981071705534971,1,0.5813747370011697
24,24,Control,0.0,0.1,0.01995262314968879,1,0.6004167560004134
24,25,Decrease,0.25,0.1,0.07943282347242815,1,0.6097166990002734
24,26,Equal_null,0.25,0.25,0.1,1,0.6134795559992199
24,27,Equal,0.1,0.1,0.05011872336272722,1,0.6452470749991335
24,28,Equal_null,0.1,0.1,0.1,1,0.7524630709995108
24,29,Equal,0.1,0.1,0.03981071705534971,1,0.562722525000936
24,30,Control,0.0,0.1,0.015848931924611127,1,0.6135716910011979
24,31,Control,0.0,0.25,0.06309573444801932,1,0.6247894309999538
24,32,Increase,0.1,0.25,0.031622776601683784,1,0.5882064170000376
24,33,Decrease_null,0.25,0.1,0.1,1,0.5590582269996958
24,34,Equal,0.25,0.25,0.031622776601683784,1,0.6285224729999754
24,35,Equal,0.1,0.1,0.031622776601683784,1,0.5843712790010613
24,36,Equal,0.25,0.25,0.02511886431509579,1,0.5145397930009494
24,37,Decrease,0.25,0.1,0.06309573444801932,1,0.5019382620012038
24,38,Decrease,0.25,0.1,0.05011872336272722,1,0.5582492100002128
24,39,Decrease_null,0.25,0.1,0.07943282347242815,1,0.634405610999238
24,40,Control,0.0,0.1,0.012589254117941666,1,1.1306248309992952
24,41,Equal,0.1,0.1,0.02511886431509579,1,0.5815619459990558
24,42,Increase,0.1,0.25,0.02511886431509579,1,0.5597846689997823
24,43,Control,0.0,0.1,0.009999999999999995,0,0.6191509139989648
24,44,Control,0.0,0.25,0.05011872336272722,1,0.5982921850009006
24,45,Equal,0.1,0.1,0.01995262314968879,1,0.5064225890000671
24,46,Control,0.0,0.1,0.012589254117941666,0,0.6377436750008201
24,47,Equal,0.1,0.1,0.015848931924611127,1,1.0110368580008071
24,48,Equal,0.25,0.25,0.01995262314968879,0,0.7436058040002536
24,49,Control_null,0.0,0.1,0.1,1,0.7442340790003072
24,50,Equal,0.1,0.1,0.012589254117941666,0,0.5715298770010122
24,51,Control_null,0.0,0.25,0.1,1,0.6675330649995885
24,52,Increase,0.1,0.25,0.01995262314968879,1,0.8467973679998977
24,53,Equal,0.25,0.25,0.025118864315095794,1,0.6162342120005633
24,54,Equal,0.25,0.25,0.01995262314968879,0,0.6351652110006398
24,55,Increase,0.1,0.25,0.015848931924611127,1,0.6854783680009859
24,56,Increase,0.1,0.25,0.012589254117941666,0,0.5854126239992183
24,57,Control,0.0,0.25,0.03981071705534971,1,0.6207698489997711
24,58,Control_null,0.0,0.25,0.07943282347242815,1,0.7041103940009634
24,59,Equal,0.1,0.1,0.015848931924611127,1,0.5951220730003115
24,60,Decrease,0.25,0.1,0.03981071705534971,1,0.5048576589997538
24,61,Equal,0.1,0.1,0.012589254117941666,0,0.6365643999997701
24,62,Control,0.0,0.25,0.031622776601683784,1,0.6053390520009998
24,63,Control,0.0,0.25,0.02511886431509579,1,0.368468077000216
24,64,Equal,0.1,0.1,0.015848931924611127,1,0.5381944439996005
24,65,Decrease,0.25,0.1,0.031622776601683784,1,0.4452219030008564
24,66,Equal,0.1,0.1,0.012589254117941666,0,0.8134947970011126
24,67,Equal,0.25,0.25,0.025118864315095794,1,0.6322887070000434
24,68,Increase,0.1,0.25,0.015848931924611127,1,0.6657651940004143
24,69,Control,0.0,0.1,0.015848931924611127,1,0.7970788080001512
24,70,Equal,0.25,0.25,0.01995262314968879,1,0.6083216049992188
24,71,Decrease,0.25,0.1,0.02511886431509579,1,0.5634546380006213
24,72,Decrease,0.25,0.1,0.01995262314968879,1,0.43198460999883537
24,73,Equal,0.1,0.1,0.015848931924611127,1,0.5804306730005919
24,74,Decrease,0.25,0.1,0.015848931924611127,1,0.5844573390004371
24,75,Equal,0.25,0.25,0.015848931924611127,1,0.5528772649995517
24,76,Equal,0.1,0.1,0.012589254117941666,0,0.637444656000298
24,77,Control,0.0,0.1,0.012589254117941666,0,99
24,78,Equal_null,0.25,0.25,0.07943282347242815,1,0.6076988370004983
24,79,Equal,0.1,0.1,0.015848931924611127,1,0.5848734960000002
24,80,Decrease,0.25,0.1,0.012589254117941666,1,0.44402361500033294
24,81,Decrease,0.25,0.1,0.009999999999999995,0,0.9273099229994841
24,82,Equal,0.25,0.25,0.012589254117941666,0,1.058504703001745
24,83,Equal_null,0.1,0.1,0.07943282347242815,0,0.7573556459992687
24,84,Decrease,0.25,0.1,0.012589254117941666,0,0.6003884050005581
24,85,Equal,0.25,0.25,0.015848931924611127,1,0.5973016509997251
24,86,Equal,0.25,0.25,0.012589254117941666,0,0.5537443700013682
24,87,Equal,0.25,0.25,0.015848931924611127,1,0.9350418009998975
24,88,Increase,0.1,0.25,0.012589254117941666,0,0.6956205899987253
24,89,Equal,0.25,0.25,0.012589254117941666,0,99
24,90,Decrease,0.25,0.1,0.015848931924611127,0,0.4748365619998367
24,91,Decrease,0.25,0.1,0.01995262314968879,1,0.6631095289994846
24,92,Control,0.0,0.1,0.015848931924611127,1,0.6233051910003269
24,93,Equal,0.25,0.25,0.015848931924611127,1,0.5544474470007117
24,94,Control,0.0,0.1,0.012589254117941666,1,0.9415897729995777
24,95,Control,0.0,0.1,0.009999999999999995,0,0.6806833459995687
24,96,Increase,0.1,0.25,0.015848931924611127,0,0.7799447149991465
24,97,Control,0.0,0.25,0.01995262314968879,1,0.7522008270007063
24,98,Control,0.0,0.1,0.012589254117941666,0,1.2117768970001634
24,99,Equal,0.25,0.25,0.012589254117941666,1,0.8406411969990586
24,100,Control,0.0,0.1,0.015848931924611127,1,0.5176773590010271
24,101,Control,0.0,0.25,0.015848931924611127,1,0.6377934360007202
24,102,Control,0.0,0.1,0.012589254117941666,1,0.4411295459995017
24,103,Equal,0.25,0.25,0.009999999999999995,0,0.8169470709999587
24,104,Equal,0.25,0.25,0.012589254117941666,0,0.6285405590006121
24,105,Equal,0.1,0.1,0.012589254117941666,0,0.5816209160002472
24,106,Equal,0.25,0.25,0.015848931924611127,0,0.5927190040001733
24,107,Decrease,0.25,0.1,0.015848931924611127,1,0.6600525799985917
24,108,Control_null,0.0,0.1,0.07943282347242815,1,0.616122458000973
24,109,Control,0.0,0.25,0.012589254117941666,0,0.6754847420015722
24,110,Equal,0.25,0.25,0.01995262314968879,1,0.6934835009997187
24,111,Equal,0.1,0.1,0.015848931924611127,1,0.6247848539987899
24,112,Equal,0.1,0.1,0.012589254117941666,1,0.5343711859986797
24,113,Control,0.0,0.1,0.009999999999999995,0,0.946291463000307
24,114,Increase,0.1,0.25,0.01995262314968879,1,0.5629400600009831
24,115,Equal,0.1,0.1,0.009999999999999995,0,0.566278271999181
24,116,Control,0.0,0.25,0.015848931924611127,1,0.7038257460008026
24,117,Control,0.0,0.1,0.012589254117941666,0,0.8669754319998901
24,118,Decrease,0.25,0.1,0.012589254117941666,0,99
24,119,Decrease,0.25,0.1,0.015848931924611127,1,0.7501010490013869
24,120,Control,0.0,0.1,0.015848931924611127,1,0.702731475001201
24,121,Equal,0.1,0.1,0.012589254117941666,0,0.5632826459986973
24,122,Equal,0.1,0.1,0.015848931924611127,1,0.7100746169999184
24,123,Equal,0.1,0.1,0.012589254117941666,0,0.6392353860010189
24,124,Decrease,0.25,0.1,0.012589254117941666,0,0.6583269399998244
24,125,Increase,0.1,0.25,0.015848931924611127,1,0.6182072999999946
24,126,Increase,0.1,0.25,0.012589254117941666,1,0.7726117430011072
24,127,Equal,0.1,0.1,0.015848931924611127,1,0.5268231489990285
24,128,Equal,0.1,0.1,0.012589254117941666,0,0.5611806440010696
24,129,Equal,0.1,0.1,0.015848931924611127,1,0.9002510539994546
24,130,Equal_null,0.1,0.1,0.1,1,0.5430918459987879
24,131,Control,0.0,0.1,0.012589254117941666,0,0.7952420379988325
24,132,Control,0.0,0.1,0.015848931924611127,1,0.5908615580010519
24,133,Equal,0.25,0.25,0.015848931924611127,0,0.4578902579996793
24,134,Control,0.0,0.25,0.012589254117941666,0,99
24,135,Control,0.0,0.25,0.015848931924611127,0,99
24,136,Increase,0.1,0.25,0.009999999999999995,0,99
24,137,Control_null,0.0,0.25,0.06309573444801932,1,0.4537267129999236
24,138,Decrease,0.25,0.1,0.015848931924611127,1,0.6137563150005008
24,139,Control,0.0,0.25,0.01995262314968879,0,0.9928734539989819
24,140,Control,0.0,0.25,0.025118864315095794,1,0.5073424530000921
24,141,Control,0.0,0.1,0.012589254117941666,1,0.6064332599999034
24,142,Control,0.0,0.25,0.01995262314968879,1,0.6016202749997319
24,143,Equal,0.25,0.25,0.01995262314968879,0,0.6372584309992817
24,144,Decrease,0.25,0.1,0.012589254117941666,0,0.7277304489998642
24,145,Increase,0.1,0.25,0.012589254117941666,0,0.21907763600029284
24,146,Equal,0.1,0.1,0.012589254117941666,0,0.22338812400084862
24,147,Equal,0.25,0.25,0.025118864315095794,1,0.4656011799997941
24,148,Equal,0.25,0.25,0.01995262314968879,0,0.261862208999446
24,149,Decrease,0.25,0.1,0.015848931924611127,0,0.3819411170006788
24,150,Equal,0.1,0.1,0.015848931924611127,1,0.5210572659998434
24,151,Equal,0.1,0.1,0.012589254117941666,0,0.457221564000065
24,152,Decrease,0.25,0.1,0.01995262314968879,1,0.541396344999157
24,153,Control,0.0,0.1,0.009999999999999995,1,0.6145915939996485
24,154,Equal,0.1,0.1,0.015848931924611127,1,0.4178218140004901
24,155,Decrease,0.25,0.1,0.015848931924611127,0,0.29408185400097864
24,156,Control,0.0,0.25,0.015848931924611127,1,0.3612039960007678
24,157,Equal,0.25,0.25,0.025118864315095794,1,0.428613291000147
24,158,Equal,0.1,0.1,0.012589254117941666,1,0.31288640400089207
24,159,Control,0.0,0.25,0.012589254117941666,0,0.4689882500006206
24,160,Control,0.0,0.25,0.015848931924611127,1,0.5429865160003828
24,161,Control,0.0,0.1,0.00794328234724281,0,0.7233131869998033
24,162,Increase_null,0.1,0.25,0.1,1,0.5153423960000509
24,163,Control,0.0,0.1,0.009999999999999995,0,0.559609066000121
24,164,Increase,0.1,0.25,0.015848931924611127,1,0.5918587489995843
24,165,Control_null,0.0,0.25,0.05011872336272722,1,0.5710770080004295
24,166,Equal,0.25,0.25,0.01995262314968879,1,0.6052899549995345
24,167,Control,0.0,0.25,0.012589254117941666,0,0.4641059810001025
24,168,Decrease,0.25,0.1,0.01995262314968879,1,0.5955320909997681
24,169,Increase,0.1,0.25,0.012589254117941666,0,0.48671049299991864
24,170,Control,0.0,0.25,0.015848931924611127,1,0.905984854000053
24,171,Decrease,0.25,0.1,0.015848931924611127,1,0.5995612269998674
24,172,Increase,0.1,0.25,0.015848931924611127,1,0.626201745999424
24,173,Decrease,0.25,0.1,0.012589254117941666,0,0.5724279549995117
24,174,Equal,0.25,0.25,0.015848931924611127,1,0.5756056910013285
24,175,Equal,0.1,0.1,0.009999999999999995,1,0.5119864959997358
24,176,Decrease,0.25,0.1,0.015848931924611127,1,0.3789126360006776
24,177,Decrease,0.25,0.1,0.012589254117941666,0,0.5642107479998231
24,178,Equal,0.25,0.25,0.012589254117941666,0,0.7664990150005906
24,179,Increase,0.1,0.25,0.012589254117941666,0,0.6004108639990591
24,180,Increase,0.1,0.25,0.015848931924611127,1,0.588881179000964
24,181,Decrease,0.25,0.1,0.015848931924611127,1,0.7040968969995447
24,182,Control,0.0,0.25,0.012589254117941666,1,0.5151029369990283
24,183,Control,0.0,0.1,0.012589254117941666,0,1.0062719350007683
24,184,Control,0.0,0.1,0.015848931924611127,1,0.6185604990005231
24,185,Increase,0.1,0.25,0.012589254117941666,1,0.7336846739999601
24,186,Equal,0.1,0.1,0.00794328234724281,1,0.6799262940003246
24,187,Equal,0.1,0.1,0.0063095734448019285,0,0.45912044199940283
24,188,Decrease,0.25,0.1,0.012589254117941666,1,0.5871049520010274
24,189,Control,0.0,0.25,0.009999999999999995,0,0.8464307970007212
24,190,Control,0.0,0.25,0.012589254117941666,0,0.806593237000925
24,191,Equal,0.25,0.25,0.015848931924611127,1,0.5948128239997459
24,192,Control,0.0,0.1,0.012589254117941666,0,0.7402413060008257
24,193,Equal,0.1,0.1,0.00794328234724281,0,0.6081800390002172
24,194,Equal_null,0.25,0.25,0.06309573444801932,1,0.45915000999957556
24,195,Equal,0.1,0.1,0.009999999999999995,0,0.7505792320007458
24,196,Decrease,0.25,0.1,0.009999999999999995,0,99
24,197,Decrease,0.25,0.1,0.012589254117941666,0,0.5830119189995457
24,198,Equal,0.25,0.25,0.012589254117941666,0,0.5474327699994319
24,199,Equal,0.1,0.1,0.012589254117941666,0,0.42924444599884737
24,200,Increase,0.1,0.25,0.009999999999999995,0,0.4001168909999251
24,201,Equal,0.25,0.25,0.015848931924611127,1,0.6408154820001073
24,202,Decrease,0.25,0.1,0.015848931924611127,1,0.5718471500003943
24,203,Increase,0.1,0.25,0.012589254117941666,0,0.5411023779997777
24,204,Equal_null,0.25,0.25,0.05011872336272722,1,0.6483265299993946
24,205,Control,0.0,0.1,0.015848931924611127,0,0.9304215729989664
24,206,Increase,0.1,0.25,0.015848931924611127,1,0.622793599999568
24,207,Control,0.0,0.1,0.01995262314968879,1,0.5537530479996349
24,208,Increase,0.1,0.25,0.012589254117941666,0,0.5489745610011596
24,209,Control,0.0,0.1,0.015848931924611127,0,0.3761003100007656
24,210,Equal_null,0.25,0.25,0.03981071705534971,1,0.29347722900092776
24,211,Decrease_null,0.25,0.1,0.06309573444801932,1,0.4257752379999147
24,212,Equal,0.25,0.25,0.012589254117941666,0,0.6184807739991811
24,213,Increase,0.1,0.25,0.015848931924611127,0,0.4376245760013262
24,214,Decrease,0.25,0.1,0.012589254117941666,0,0.29500727400045434
24,215,Control,0.0,0.1,0.01995262314968879,0,0.13829149999946821
24,216,Control,0.0,0.25,0.015848931924611127,1,0.5061299650005822
24,217,Control,0.0,0.25,0.012589254117941666,1,0.6616255900007673
24,218,Control,0.0,0.25,0.009999999999999995,0,0.5046837499994581
24,219,Equal,0.25,0.25,0.015848931924611127,0,0.3960758220000571
24,220,Decrease,0.25,0.1,0.015848931924611127,0,0.3752334440014238
24,221,Increase,0.1,0.25,0.01995262314968879,0,0.3315769340006227
24,222,Control,0.0,0.1,0.025118864315095794,1,0.5988402550010505
24,223,Control,0.0,0.25,0.012589254117941666,0,0.611117540000123
24,224,Equal_null,0.25,0.25,0.031622776601683784,1,0.6161847799994575
24,225,Equal,0.1,0.1,0.015848931924611127,0,99
24,226,Decrease,0.25,0.1,0.01995262314968879,0,0.508339458001501
24,227,Increase,0.1,0.25,0.025118864315095794,1,0.6293584110007941
24,228,Equal,0.1,0.1,0.01995262314968879,1,0.6794344469999487
24,229,Equal,0.1,0.1,0.015848931924611127,1,0.5439764089987875
24,230,Equal,0.1,0.1,0.012589254117941666,0,0.4599373849996482
24,231,Equal,0.1,0.1,0.015848931924611127,0,0.3031765420000738
24,232,Control,0.0,0.1,0.01995262314968879,0,0.3865138549990661
24,233,Equal,0.25,0.25,0.01995262314968879,1,0.8375580569991143
24,234,Decrease,0.25,0.1,0.025118864315095794,1,0.5606620779999503
24,235,Control,0.0,0.1,0.025118864315095794,1,0.5488381369996205
24,236,Increase,0.1,0.25,0.01995262314968879,1,0.8812883039990993
24,237,Increase,0.1,0.25,0.015848931924611127,1,0.6064813600005436
24,238,Increase,0.1,0.25,0.012589254117941666,0,0.4956525599991437
24,239,Control,0.0,0.1,0.01995262314968879,0,0.6828367079997406
24,240,Increase,0.1,0.25,0.015848931924611127,1,1.0095770730004006
24,241,Equal,0.25,0.25,0.015848931924611127,1,0.4309097719997226
24,242,Equal,0.25,0.25,0.012589254117941666,0,0.5551237019990367
24,243,Equal,0.1,0.1,0.01995262314968879,1,0.5936840870017477
24,244,Equal,0.25,0.25,0.015848931924611127,1,0.4700638260001142
24,245,Increase,0.1,0.25,0.012589254117941666,0,0.5502071509999951
24,246,Equal,0.1,0.1,0.015848931924611127,1,0.7535224509992986
24,247,Control,0.0,0.1,0.025118864315095794,1,0.3002655340005731
24,248,Control,0.0,0.1,0.01995262314968879,0,0.6779490900007659
24,249,Control,0.0,0.25,0.015848931924611127,1,0.6170224310008052
24,250,Decrease,0.25,0.1,0.01995262314968879,1,0.43572435199894244
24,251,Control,0.0,0.25,0.012589254117941666,0,0.5992822919997707
24,252,Equal,0.25,0.25,0.012589254117941666,0,0.8276738270014903
24,253,Equal_null,0.1,0.1,0.07943282347242815,1,0.44653457200001867
24,254,Increase,0.1,0.25,0.015848931924611127,1,0.6498513070000627
24,255,Increase,0.1,0.25,0.012589254117941666,0,0.9357346389988379
24,256,Increase,0.1,0.25,0.015848931924611127,1,0.528023884000504
24,257,Equal,0.1,0.1,0.012589254117941666,0,0.47545322600126383
24,258,Equal,0.1,0.1,0.015848931924611127,0,0.7722280069992848
24,259,Control,0.0,0.1,0.025118864315095794,1,0.5197770840004523
24,260,Control,0.0,0.1,0.01995262314968879,1,0.7387754320006934
24,261,Control,0.0,0.1,0.015848931924611127,1,0.580143961999056
24,262,Equal,0.1,0.1,0.01995262314968879,1,0.5112788490005187
24,263,Increase,0.1,0.25,0.012589254117941666,0,0.651614325999617
24,264,Control,0.0,0.25,0.015848931924611127,1,0.5107062110000697
24,265,Control,0.0,0.25,0.012589254117941666,1,0.47401690399965446
24,266,Equal,0.25,0.25,0.015848931924611127,1,0.5175422789998265
24,267,Control,0.0,0.25,0.009999999999999995,1,0.7282075479997729
24,268,Increase,0.1,0.25,0.015848931924611127,1,0.5724050910012011
24,269,Equal,0.25,0.25,0.012589254117941666,0,0.5906559109989757
24,270,Decrease,0.25,0.1,0.015848931924611127,1,0.4658012400013831
24,271,Increase,0.1,0.25,0.012589254117941666,1,0.3142383909998898
24,272,Equal,0.1,0.1,0.015848931924611127,1,0.2369819979994645
24,273,Equal,0.1,0.1,0.012589254117941666,1,0.30532408700128144
24,274,Control,0.0,0.1,0.012589254117941666,0,0.6586489989986148
24,275,Control,0.0,0.25,0.00794328234724281,0,0.5980056240005069
24,276,Decrease,0.25,0.1,0.012589254117941666,0,0.4570300980012689
24,277,Decrease,0.25,0.1,0.015848931924611127,1,0.8112349999992148
24,278,Equal,0.25,0.25,0.015848931924611127,1,0.6954496369999106
24,279,Equal,0.1,0.1,0.009999999999999995,0,0.49047501200038823
24,280,Equal,0.25,0.25,0.012589254117941666,0,99
24,281,Equal,0.1,0.1,0.012589254117941666,0,0.34600021400001424
24,282,Control,0.0,0.25,0.009999999999999995,0,0.5311639810006454
24,283,Decrease,0.25,0.1,0.012589254117941666,0,0.3261220760014112
24,284,Control,0.0,0.25,0.012589254117941666,0,0.11023504399963713
24,285,Equal,0.1,0.1,0.015848931924611127,0,0.4262334479990386
24,286,Equal,0.1,0.1,0.01995262314968879,0,0.38968251299957046
24,287,Control,0.0,0.25,0.015848931924611127,1,0.6231352559989318
24,288,Control,0.0,0.1,0.015848931924611127,0,0.5861972359998617
24,289,Control,0.0,0.1,0.01995262314968879,0,0.7334877389985195
24,290,Control,0.0,0.1,0.025118864315095794,1,0.7365089749982872
24,291,Control,0.0,0.1,0.01995262314968879,0,0.6127510110000003
24,292,Decrease,0.25,0.1,0.015848931924611127,1,0.6239104539999971
24,293,Equal,0.25,0.25,0.015848931924611127,1,0.347164361999603
24,294,Control,0.0,0.1,0.025118864315095794,1,0.5103783409995231
24,295,Decrease,0.25,0.1,0.012589254117941666,1,0.5113523850013735
24,296,Equal,0.1,0.1,0.025118864315095794,1,0.2988998710006854
24,297,Control,0.0,0.1,0.01995262314968879,0,0.4829395670003578
24,298,Increase,0.1,0.25,0.009999999999999995,0,0.6462116799993964
24,299,Equal,0.1,0.1,0.01995262314968879,0,0.4333609629993589
24,300,Control,0.0,0.1,0.025118864315095794,1,0.6264495880004688
24,301,Control,0.0,0.25,0.012589254117941666,0,0.48486147400035406
24,302,Decrease,0.25,0.1,0.009999999999999995,0,99
24,303,Increase,0.1,0.25,0.012589254117941666,0,99
24,304,Increase,0.1,0.25,0.015848931924611127,0,0.3526111190003576
24,305,Decrease,0.25,0.1,0.012589254117941666,0,0.48333056999945256
24,306,Decrease,0.25,0.1,0.015848931924611127,0,0.5805539370012411
24,307,Control,0.0,0.1,0.01995262314968879,1,0.6407639680001012
24,308,Control,0.0,0.25,0.015848931924611127,0,0.4181508429992391
24,309,Equal,0.1,0.1,0.025118864315095794,1,0.5810403230007068
24,310,Control,0.0,0.25,0.01995262314968879,1,0.8135482360012247
24,311,Equal,0.1,0.1,0.01995262314968879,0,0.7043398389996582
24,312,Control,0.0,0.25,0.015848931924611127,1,0.763764576999165
24,313,Equal,0.1,0.1,0.025118864315095794,1,0.6868267209993064
24,314,Equal,0.25,0.25,0.012589254117941666,0,0.9859461360010755
24,315,Control,0.0,0.25,0.012589254117941666,0,0.3812130049991538
24,316,Equal,0.1,0.1,0.01995262314968879,0,0.15251061799972376
24,317,Increase,0.1,0.25,0.01995262314968879,0,0.3425836949991208
24,318,Increase,0.1,0.25,0.025118864315095794,0,0.3377196539986471
24,319,Equal,0.1,0.1,0.025118864315095794,1,0.36409708499923
24,320,Decrease,0.25,0.1,0.01995262314968879,0,0.6148383330000797
24,321,Control,0.0,0.25,0.015848931924611127,0,0.6164130760007538
24,322,Equal,0.25,0.25,0.015848931924611127,1,0.6755408960016211
24,323,Equal,0.25,0.25,0.012589254117941666,0,0.42784850200041546
24,324,Increase,0.1,0.25,0.031622776601683784,1,0.5429342909992556
24,325,Equal,0.1,0.1,0.01995262314968879,1,0.46618239100098435
24,326,Decrease,0.25,0.1,0.025118864315095794,1,0.3322544699985883
24,327,Increase_null,0.1,0.25,0.07943282347242815,0,99
24,328,Decrease,0.25,0.1,0.01995262314968879,1,0.6583878149995144
24,329,Increase,0.1,0.25,0.02511886431509579,1,0.9268239949997223
24,330,Equal,0.1,0.1,0.015848931924611127,0,0.3794440689998737
24,331,Equal,0.25,0.25,0.015848931924611127,1,0.6873227739997674
24,332,Equal,0.25,0.25,0.012589254117941666,0,0.42435361400021065
24,333,Control,0.0,0.25,0.01995262314968879,0,99
24,334,Control,0.0,0.1,0.015848931924611127,0,99
24,335,Control,0.0,0.1,0.01995262314968879,0,99
24,336,Decrease,0.25,0.1,0.015848931924611127,0,0.8001033950004057
24,337,Equal,0.25,0.25,0.015848931924611127,1,0.8834962800010544
24,338,Equal,0.25,0.25,0.012589254117941666,0,0.3826143520000187
24,339,Control,0.0,0.25,0.025118864315095794,1,0.5936727440002869
24,340,Equal,0.1,0.1,0.01995262314968879,1,0.516547368000829
24,341,Control,0.0,0.1,0.025118864315095794,1,0.599961001000338
24,342,Equal,0.25,0.25,0.015848931924611127,1,0.5633567770000809
24,343,Control,0.0,0.1,0.01995262314968879,0,0.8014429280010518
24,344,Control,0.0,0.25,0.01995262314968879,0,0.46223222600019653
24,345,Increase,0.1,0.25,0.01995262314968879,1,0.6788676720007061
24,346,Equal,0.1,0.1,0.015848931924611127,0,0.5780684069995914
24,347,Increase,0.1,0.25,0.015848931924611127,0,0.4022997409992968
24,348,Control,0.0,0.25,0.025118864315095794,0,0.2694300290004321
24,349,Increase,0.1,0.25,0.01995262314968879,1,0.5506957449997572
24,350,Control_null,0.0,0.25,0.03981071705534971,1,0.47384527099893603
24,351,Equal,0.1,0.1,0.01995262314968879,0,0.6838331429989921
24,352,Control,0.0,0.25,0.031622776601683784,1,0.6152694970005541
24,353,Increase,0.1,0.25,0.015848931924611127,0,0.8514021949995367
24,354,Equal,0.1,0.1,0.025118864315095794,1,0.5905442650000623
24,355,Increase,0.1,0.25,0.01995262314968879,0,0.9377326279991394
24,356,Decrease,0.25,0.1,0.01995262314968879,0,0.6469169089996285
24,357,Decrease,0.25,0.1,0.025118864315095794,0,99
24,358,Increase,0.1,0.25,0.025118864315095794,1,0.5725111490010022
24,359,Increase,0.1,0.25,0.01995262314968879,1,0.6064056849991175
24,360,Control,0.0,0.1,0.025118864315095794,1,0.9074347759997181
24,361,Equal,0.1,0.1,0.01995262314968879,1,0.575702130998252
24,362,Equal,0.25,0.25,0.012589254117941666,0,0.46105496200107154
24,363,Equal,0.25,0.25,0.015848931924611127,1,0.5095175619990187
24,364,Decrease,0.25,0.1,0.031622776601683784,1,0.38487295400045696
24,365,Control,0.0,0.1,0.01995262314968879,1,0.5061092500000086
24,366,Equal,0.1,0.1,0.015848931924611127,1,0.4212114769998152
24,367,Control,0.0,0.1,0.015848931924611127,1,0.45338733199969283
24,368,Control,0.0,0.25,0.02511886431509579,1,0.4726962390013796
24,369,Equal,0.1,0.1,0.012589254117941666,0,0.49181062299976475
24,370,Equal_null,0.1,0.1,0.06309573444801932,1,0.7278636200007895
24,371,Control,0.0,0.25,0.01995262314968879,1,0.731236687001001
24,372,Equal,0.1,0.1,0.015848931924611127,1,0.4864070859985077
24,373,Decrease,0.25,0.1,0.02511886431509579,1,0.5537322319996747
24,374,Increase,0.1,0.25,0.015848931924611127,0,0.9500313270000333
24,375,Control,0.0,0.25,0.015848931924611127,1,0.547450531999857
24,376,Decrease,0.25,0.1,0.01995262314968879,1,0.8603087110004708
24,377,Increase,0.1,0.25,0.01995262314968879,1,0.526197974999377
24,378,Equal,0.1,0.1,0.012589254117941666,0,0.5342369319987483
24,379,Control,0.0,0.25,0.012589254117941666,0,0.690779119000581
24,380,Control,0.0,0.25,0.015848931924611127,1,0.5789424400009011
24,381,Control,0.0,0.25,0.012589254117941666,0,0.5416080900013185
24,382,Equal,0.1,0.1,0.015848931924611127,1,0.8173785380004119
24,383,Increase_null,0.1,0.25,0.1,1,0.45254725300037535
24,384,Equal_null,0.1,0.1,0.05011872336272722,1,0.4727304619991628
24,385,Equal_null,0.25,0.25,0.02511886431509579,1,0.5799223049998545
24,386,Control,0.0,0.25,0.015848931924611127,1,0.5991014350001933
24,387,Control,0.0,0.1,0.012589254117941666,1,0.6676852649998182
24,388,Decrease,0.25,0.1,0.015848931924611127,1,0.8718679979992885
24,389,Increase,0.1,0.25,0.015848931924611127,1,0.47256498699971416
24,390,Equal,0.1,0.1,0.012589254117941666,0,0.3959421420004219
24,391,Equal,0.1,0.1,0.015848931924611127,1,0.6770028110004205
24,392,Control,0.0,0.25,0.012589254117941666,1,0.5761382590007997
24,393,Equal,0.1,0.1,0.012589254117941666,0,0.6415221719998954
24,394,Control,0.0,0.25,0.009999999999999995,0,0.41239032999874325
24,395,Control,0.0,0.25,0.012589254117941666,0,0.5036383570004546
24,396,Control,0.0,0.1,0.009999999999999995,0,0.5225981700004922
24,397,Increase,0.1,0.25,0.012589254117941666,0,0.5740946260011697
24,398,Equal,0.25,0.25,0.012589254117941666,0,0.4413054269989516
24,399,Control,0.0,0.25,0.015848931924611127,0,0.6608305459994881
24,400,Decrease,0.25,0.1,0.012589254117941666,0,0.5620308060006209
24,401,Equal,0.25,0.25,0.015848931924611127,1,0.5982770890004758
24,402,Control,0.0,0.1,0.012589254117941666,0,0.6550076789990271
24,403,Equal,0.1,0.1,0.015848931924611127,0,0.7382327089999308
24,404,Equal,0.1,0.1,0.01995262314968879,0,0.48240484699999797
24,405,Equal,0.1,0.1,0.025118864315095794,1,0.5014838410006632
24,406,Control,0.0,0.25,0.01995262314968879,0,0.4467771500003437
24,407,Equal,0.1,0.1,0.01995262314968879,0,99
24,408,Equal,0.1,0.1,0.025118864315095794,1,0.5020912279996992
24,409,Equal_null,0.1,0.1,0.03981071705534971,1,0.2813289559999248
24,410,Equal,0.1,0.1,0.01995262314968879,1,0.5484008530002029
24,411,Increase,0.1,0.25,0.015848931924611127,1,0.3916405370000575
24,412,Equal,0.1,0.1,0.015848931924611127,0,0.4268988280000485
24,413,Equal,0.1,0.1,0.01995262314968879,1,0.5110117219992389
24,414,Decrease,0.25,0.1,0.015848931924611127,1,0.50823490699986
24,415,Control_null,0.0,0.25,0.031622776601683784,1,0.5243447829998331
24,416,Equal,0.25,0.25,0.012589254117941666,0,0.5595538800007489
24,417,Equal_null,0.1,0.1,0.031622776601683784,1,0.6155792299996392
24,418,Decrease,0.25,0.1,0.012589254117941666,0,0.45782364300066547
24,419,Equal,0.1,0.1,0.015848931924611127,0,0.1241522399996029
24,420,Decrease,0.25,0.1,0.015848931924611127,0,0.4302413780005736
24,421,Control,0.0,0.25,0.025118864315095794,1,0.5615675680001004
24,422,Decrease,0.25,0.1,0.01995262314968879,0,0.45247636000021885
24,423,Control,0.0,0.1,0.015848931924611127,1,0.5838807119998819
24,424,Decrease,0.25,0.1,0.025118864315095794,1,0.5402495319995069
24,425,Control,0.0,0.1,0.012589254117941666,0,0.5422458659995755
24,426,Equal,0.25,0.25,0.015848931924611127,1,0.5066715729990392
24,427,Equal,0.25,0.25,0.012589254117941666,0,0.6151809780003532
24,428,Control,0.0,0.1,0.015848931924611127,1,0.6868998879999708
24,429,Control,0.0,0.25,0.01995262314968879,0,0.4981262820001575
24,430,Control,0.0,0.1,0.012589254117941666,0,0.21825592599998345
24,431,Control,0.0,0.1,0.015848931924611127,1,0.5424059830002079
24,432,Control,0.0,0.25,0.025118864315095794,1,0.5435570000008738
24,433,Control,0.0,0.25,0.01995262314968879,1,0.5066744110008585
24,434,Control,0.0,0.1,0.012589254117941666,0,0.6949924649998138
24,435,Equal,0.25,0.25,0.015848931924611127,1,0.5459922820009524
24,436,Increase,0.1,0.25,0.012589254117941666,0,0.48533223699996597
24,437,Equal,0.25,0.25,0.012589254117941666,0,0.4325617059985234
24,438,Equal,0.25,0.25,0.015848931924611127,1,0.7958666829999856
24,439,Increase,0.1,0.25,0.015848931924611127,0,0.5749123269997654
24,440,Increase,0.1,0.25,0.01995262314968879,0,0.26803776700035087
24,441,Control,0.0,0.1,0.015848931924611127,0,0.27619154499916476
24,442,Increase,0.1,0.25,0.025118864315095794,1,0.7914038109993271
24,443,Equal,0.1,0.1,0.01995262314968879,1,0.8964353690007556
24,444,Control,0.0,0.1,0.01995262314968879,0,0.4917108610006835
24,445,Equal,0.25,0.25,0.012589254117941666,0,0.4780449210011284
24,446,Decrease,0.25,0.1,0.01995262314968879,0,0.36126100300134567
24,447,Decrease,0.25,0.1,0.025118864315095794,1,0.652343624000423
24,448,Equal,0.25,0.25,0.015848931924611127,1,0.4718023749992426
24,449,Decrease,0.25,0.1,0.01995262314968879,1,0.3958394510009384
24,450,Increase,0.1,0.25,0.01995262314968879,0,0.4398084240001481
24,451,Decrease,0.25,0.1,0.015848931924611127,1,0.5712813040008768
24,452,Increase,0.1,0.25,0.025118864315095794,1,0.5685398829991755
24,453,Equal,0.25,0.25,0.012589254117941666,0,0.4595291229998111
24,454,Decrease,0.25,0.1,0.012589254117941666,1,0.5558360839986562
24,455,Equal,0.1,0.1,0.015848931924611127,0,0.694743832000313
24,456,Control,0.0,0.1,0.025118864315095794,0,99
24,457,Decrease,0.25,0.1,0.009999999999999995,0,0.5235085549993528
24,458,Increase_null,0.1,0.25,0.07943282347242815,1,0.4764130399998976
24,459,Control,0.0,0.1,0.031622776601683784,1,0.5044854020015919
24,460,Decrease,0.25,0.1,0.012589254117941666,0,99
24,461,Control,0.0,0.1,0.02511886431509579,1,0.5990441409994673
24,462,Increase,0.1,0.25,0.01995262314968879,1,0.3951310280008329
24,463,Equal,0.1,0.1,0.01995262314968879,0,0.7772717810003087
24,464,Control,0.0,0.25,0.015848931924611127,0,0.6986832959992171
24,465,Control,0.0,0.1,0.01995262314968879,1,0.71760699799961
24,466,Equal,0.25,0.25,0.015848931924611127,0,0.4409274780009582
24,467,Equal,0.25,0.25,0.01995262314968879,1,0.6730095120001351
24,468,Control,0.0,0.1,0.015848931924611127,0,0.9404564659998869
24,469,Equal,0.25,0.25,0.015848931924611127,0,0.4933901149997837
24,470,Control,0.0,0.1,0.01995262314968879,1,0.5846439470005862
24,471,Decrease,0.25,0.1,0.015848931924611127,1,0.7549654369995551
24,472,Increase,0.1,0.25,0.015848931924611127,0,0.5740431399990484
24,473,Equal,0.25,0.25,0.01995262314968879,1,0.5852147599998716
24,474,Equal,0.25,0.25,0.015848931924611127,1,0.4684346390004066
24,475,Decrease_null,0.25,0.1,0.05011872336272722,0,99
24,476,Control,0.0,0.25,0.01995262314968879,0,0.5718916949990671
24,477,Decrease,0.25,0.1,0.012589254117941666,0,0.5031449380003323
24,478,Increase_null,0.1,0.25,0.06309573444801932,1,0.30712132200096676
24,479,Control,0.0,0.1,0.015848931924611127,0,0.6223668970014842
24,480,Decrease,0.25,0.1,0.015848931924611127,0,0.947019168001134
24,481,Equal,0.25,0.25,0.012589254117941666,0,0.3309399379995739
24,482,Equal,0.1,0.1,0.025118864315095794,1,0.6061336519996985
24,483,Equal_null,0.25,0.25,0.01995262314968879,1,0.37718818899884354
24,484,Control,0.0,0.1,0.01995262314968879,1,0.5804676159987139
24,485,Control,0.0,0.25,0.025118864315095794,1,0.3999397110001155
24,486,Equal,0.25,0.25,0.015848931924611127,1,0.4840964710001572
24,487,Equal,0.1,0.1,0.01995262314968879,1,0.4871365680010058
24,488,Increase,0.1,0.25,0.01995262314968879,1,0.46009652899920184
24,489,Control,0.0,0.25,0.01995262314968879,1,0.5449045440000191
24,490,Increase,0.1,0.25,0.015848931924611127,1,0.4808756780003023
24,491,Increase,0.1,0.25,0.012589254117941666,0,0.3080763289999595
24,492,Control,0.0,0.1,0.015848931924611127,0,0.4531103930003155
24,493,Equal,0.1,0.1,0.015848931924611127,1,0.5525629580006353
24,494,Equal,0.1,0.1,0.012589254117941666,0,0.5606649649998872
24,495,Decrease,0.25,0.1,0.01995262314968879,0,0.5395594370002073
24,496,Decrease,0.25,0.1,0.025118864315095794,1,0.5199623049993534
24,497,Control,0.0,0.25,0.015848931924611127,1,0.667011599000034
24,498,Increase,0.1,0.25,0.015848931924611127,1,0.5903261009989365
24,499,Equal,0.1,0.1,0.015848931924611127,1,0.6015376199993625
24,500,Equal,0.1,0.1,0.012589254117941666,1,0.6363975790009135
24,501,Control,0.0,0.25,0.012589254117941666,0,0.6812038890002441
24,502,Decrease,0.25,0.1,0.01995262314968879,1,0.7100665550005942
24,503,Increase,0.1,0.25,0.012589254117941666,1,0.5911216200001945
24,504,Increase,0.1,0.25,0.009999999999999995,0,0.5623859859988443
24,505,Control,0.0,0.25,0.015848931924611127,1,0.8585123119992204
24,506,Increase,0.1,0.25,0.012589254117941666,1,0.7655887700002495
24,507,Decrease,0.25,0.1,0.015848931924611127,0,0.4709173409992218
24,508,Decrease,0.25,0.1,0.01995262314968879,0,0.5462454650005384
24,509,Equal,0.25,0.25,0.012589254117941666,0,99
24,510,Control,0.0,0.25,0.012589254117941666,1,0.6726190230001521
24,511,Control,0.0,0.1,0.01995262314968879,1,0.700616574000378
24,512,Equal,0.25,0.25,0.015848931924611127,0,0.5358428239997011
24,513,Control_null,0.0,0.25,0.02511886431509579,1,0.5950834529994609
24,514,Increase,0.1,0.25,0.009999999999999995,0,0.5438375430003362
24,515,Decrease,0.25,0.1,0.025118864315095794,1,0.5083710069993685
24,516,Decrease,0.25,0.1,0.01995262314968879,0,0.5802480099991953
24,517,Control,0.0,0.1,0.015848931924611127,0,0.7036399469998287
24,518,Equal_null,0.25,0.25,0.015848931924611127,1,0.5601442280003539
24,519,Equal,0.25,0.25,0.01995262314968879,0,99
24,520,Equal,0.25,0.25,0.025118864315095794,1,0.8853968050007097
24,521,Decrease,0.25,0.1,0.025118864315095794,1,0.5045476659997803
24,522,Control,0.0,0.25,0.009999999999999995,0,0.6197922650007968
24,523,Equal,0.25,0.25,0.01995262314968879,1,0.935026127999663
24,524,Increase,0.1,0.25,0.012589254117941666,0,99
24,525,Equal,0.1,0.1,0.009999999999999995,0,0.5653527790000226
24,526,Control_null,0.0,0.1,0.06309573444801932,1,0.44120389300042007
24,527,Equal,0.25,0.25,0.015848931924611127,1,0.5239418220007792
24,528,Control,0.0,0.1,0.01995262314968879,1,0.6967408609998529
24,529,Increase,0.1,0.25,0.015848931924611127,0,0.7461237669995171
24,530,Equal,0.25,0.25,0.012589254117941666,0,0.5652602549998846
24,531,Increase,0.1,0.25,0.01995262314968879,0,0.5733136779999768
24,532,Control,0.0,0.25,0.012589254117941666,0,0.5602690759988036
24,533,Decrease,0.25,0.1,0.01995262314968879,1,0.5069684499994764
24,534,Control,0.0,0.1,0.015848931924611127,1,0.31596486899979936
24,535,Equal,0.25,0.25,0.015848931924611127,1,0.47126636899884033
24,536,Equal_null,0.25,0.25,0.012589254117941666,1,0.45041966299868363
24,537,Equal,0.1,0.1,0.012589254117941666,0,0.4534714490000624
24,538,Decrease,0.25,0.1,0.015848931924611127,0,0.13644698200005223
24,539,Equal,0.1,0.1,0.015848931924611127,1,0.6050286600002437
24,540,Equal_null,0.1,0.1,0.02511886431509579,1,0.4575172839995503
24,541,Equal,0.1,0.1,0.012589254117941666,0,0.4444324720006989
24,542,Decrease,0.25,0.1,0.01995262314968879,0,99
24,543,Equal,0.1,0.1,0.015848931924611127,1,0.5845517779998772
24,544,Decrease,0.25,0.1,0.025118864315095794,1,0.4409395349994156
24,545,Control,0.0,0.1,0.012589254117941666,1,0.42908671899931505
24,546,Decrease,0.25,0.1,0.01995262314968879,1,0.854175762999148
24,547,Control,0.0,0.25,0.015848931924611127,0,0.5370317459983198
24,548,Decrease,0.25,0.1,0.015848931924611127,1,0.5163716709994333
24,549,Decrease,0.25,0.1,0.012589254117941666,0,0.5048768690012366
24,550,Equal,0.25,0.25,0.012589254117941666,0,0.4600033330007136
24,551,Decrease,0.25,0.1,0.015848931924611127,1,0.5120552319986018
24,552,Increase,0.1,0.25,0.025118864315095794,1,0.4603856760004419
24,553,Control,0.0,0.25,0.01995262314968879,0,99
24,554,Increase,0.1,0.25,0.01995262314968879,0,0.45172417200046766
24,555,Decrease_null,0.25,0.1,0.06309573444801932,1,0.459884208999938
24,556,Control,0.0,0.25,0.025118864315095794,1,0.6549072730012995
24,557,Increase,0.1,0.25,0.025118864315095794,1,0.42315721299928555
24,558,Decrease,0.25,0.1,0.012589254117941666,1,0.47564572200099065
24,559,Control,0.0,0.25,0.01995262314968879,0,0.5166194920002454
24,560,Control_null,0.0,0.25,0.01995262314968879,0,99
24,561,Control_null,0.0,0.25,0.025118864315095794,1,0.38012148100096965
24,562,Equal,0.1,0.1,0.012589254117941666,0,0.5513747229997534
24,563,Decrease,0.25,0.1,0.009999999999999995,0,0.266512172000148
24,564,Control,0.0,0.1,0.009999999999999995,0,99
24,565,Decrease,0.25,0.1,0.012589254117941666,0,0.45776520800063736
24,566,Equal,0.25,0.25,0.015848931924611127,1,0.8450067270005093
24,567,Decrease,0.25,0.1,0.015848931924611127,0,0.6570972730005451
24,568,Increase,0.1,0.25,0.01995262314968879,1,0.849287186998481
24,569,Equal,0.25,0.25,0.012589254117941666,0,0.8603216009996686
24,570,Equal,0.25,0.25,0.015848931924611127,0,0.5817074209990096
24,571,Equal,0.1,0.1,0.015848931924611127,0,99
24,572,Equal,0.1,0.1,0.01995262314968879,0,0.811191704000521
24,573,Equal,0.25,0.25,0.01995262314968879,0,0.5021626479992847
24,574,Equal,0.1,0.1,0.025118864315095794,1,0.5213821029992687
24,575,Equal,0.25,0.25,0.025118864315095794,1,0.4363541900002019
24,576,Equal,0.1,0.1,0.01995262314968879,1,0.4648047070004395
24,577,Control,0.0,0.1,0.012589254117941666,0,0.5496152910000092
24,578,Control,0.0,0.25,0.025118864315095794,1,0.49599816699992516
24,579,Decrease,0.25,0.1,0.01995262314968879,1,0.45835651500055974
24,580,Equal,0.25,0.25,0.01995262314968879,0,0.5494684340010281
24,581,Control,0.0,0.1,0.015848931924611127,1,0.5897781030016631
24,582,Equal,0.1,0.1,0.015848931924611127,0,0.5129001370005426
24,583,Increase,0.1,0.25,0.015848931924611127,0,0.3702097239984141
24,584,Control,0.0,0.25,0.01995262314968879,0,0.47736703699956706
24,585,Equal,0.25,0.25,0.025118864315095794,1,0.5835360770015541
24,586,Equal,0.25,0.25,0.01995262314968879,1,0.6183399790006661
24,587,Equal,0.1,0.1,0.01995262314968879,0,0.7098988720008492
24,588,Equal,0.25,0.25,0.015848931924611127,1,0.4420707200006291
24,589,Decrease,0.25,0.1,0.015848931924611127,0,0.4453127550004865
24,590,Control,0.0,0.25,0.025118864315095794,1,0.5699674609986687
24,591,Equal,0.25,0.25,0.012589254117941666,0,0.4300703530007013
24,592,Decrease,0.25,0.1,0.01995262314968879,1,0.5267625420001423
24,593,Control,0.0,0.25,0.01995262314968879,1,0.5041202920001524
24,594,Control,0.0,0.25,0.015848931924611127,1,0.42414701799862087
24,595,Control,0.0,0.25,0.012589254117941666,1,0.45923631500045303
24,596,Decrease,0.25,0.1,0.015848931924611127,1,0.5247143910000887
24,597,Equal,0.1,0.1,0.025118864315095794,1,0.5435801740004536
24,598,Control,0.0,0.1,0.012589254117941666,0,99
24,599,Equal,0.25,0.25,0.015848931924611127,0,0.5021668790013791
24,600,Increase,0.1,0.25,0.01995262314968879,0,0.7049428889986302
24,601,Control,0.0,0.25,0.009999999999999995,0,0.39609493799980555
24,602,Decrease,0.25,0.1,0.012589254117941666,0,0.43947474199922
24,603,Decrease,0.25,0.1,0.015848931924611127,0,0.22703858299973945
24,604,Equal_null,0.25,0.25,0.009999999999999995,1,0.2148915779998788
24,605,Control,0.0,0.1,0.015848931924611127,0,99
24,606,Control,0.0,0.25,0.012589254117941666,0,0.53509499699976
24,607,Control,0.0,0.25,0.015848931924611127,0,0.4113150359989959
24,608,Decrease,0.25,0.1,0.01995262314968879,0,0.25264022100054717
24,609,Equal,0.1,0.1,0.01995262314968879,0,0.39988925300167466
24,610,Equal,0.25,0.25,0.01995262314968879,0,0.527996112999972
24,611,Control,0.0,0.25,0.01995262314968879,0,99
24,612,Control,0.0,0.25,0.025118864315095794,1,0.531297686000471
24,613,Control,0.0,0.25,0.01995262314968879,0,0.40749084200069774
24,614,Control,0.0,0.25,0.025118864315095794,1,0.46661235399915313
24,615,Equal,0.25,0.25,0.025118864315095794,1,0.5739565860003495
24,616,Control,0.0,0.25,0.01995262314968879,1,0.5052021629999217
24,617,Equal,0.25,0.25,0.01995262314968879,1,0.6203334660003748
24,618,Control,0.0,0.1,0.01995262314968879,1,0.4233300070009136
24,619,Equal,0.1,0.1,0.025118864315095794,1,0.5561891930010461
24,620,Control,0.0,0.25,0.015848931924611127,1,0.4733172429987462
24,621,Control,0.0,0.25,0.012589254117941666,0,0.7619847280002432
24,622,Decrease,0.25,0.1,0.025118864315095794,1,0.48514518499905535
24,623,Increase,0.1,0.25,0.025118864315095794,1,0.4292706680007541
24,624,Equal,0.1,0.1,0.01995262314968879,0,0.753550161000021
24,625,Control,0.0,0.1,0.015848931924611127,1,0.6178767250003148
24,626,Equal,0.1,0.1,0.025118864315095794,1,0.5251205280001159
24,627,Control,0.0,0.1,0.012589254117941666,0,0.8640314910007874
24,628,Decrease,0.25,0.1,0.01995262314968879,1,1.099496168000769
24,629,Increase,0.1,0.25,0.01995262314968879,1,0.41455822699936107
24,630,Increase,0.1,0.25,0.015848931924611127,1,0.4896235649994196
24,631,Equal,0.25,0.25,0.015848931924611127,1,0.5970428139989963
24,632,Control,0.0,0.1,0.015848931924611127,1,0.4172528010003589
24,633,Increase,0.1,0.25,0.012589254117941666,0,0.662698731999626
24,634,Equal,0.25,0.25,0.012589254117941666,0,0.9433391570000822
24,635,Equal,0.25,0.25,0.015848931924611127,1,0.49855492000097
24,636,Decrease,0.25,0.1,0.015848931924611127,1,0.38794801800031564
24,637,Control,0.0,0.1,0.012589254117941666,1,0.32693879200087395
24,638,Control_null,0.0,0.25,0.01995262314968879,1,0.4392581179999979
24,639,Control_null,0.0,0.1,0.05011872336272722,1,0.5795342569999775
24,640,Increase,0.1,0.25,0.015848931924611127,1,0.5346356720001495
24,641,Decrease,0.25,0.1,0.012589254117941666,0,0.6018587769995065
24,642,Control,0.0,0.25,0.015848931924611127,0,0.6289566809991811
24,643,Equal,0.25,0.25,0.012589254117941666,0,0.4959955030008132
24,644,Equal,0.1,0.1,0.01995262314968879,0,0.6993422969990206
24,645,Equal,0.25,0.25,0.015848931924611127,1,0.5521899270006543
24,646,Increase,0.1,0.25,0.012589254117941666,0,0.3092333669992513
24,647,Equal,0.1,0.1,0.025118864315095794,1,0.6700834779985598
24,648,Control,0.0,0.1,0.009999999999999995,0,0.4410309489994688
24,649,Equal,0.25,0.25,0.012589254117941666,0,0.42531551899992337
24,650,Increase,0.1,0.25,0.015848931924611127,1,0.5075388419991214
24,651,Equal,0.1,0.1,0.01995262314968879,1,0.5646143989997654
24,652,Increase_null,0.1,0.25,0.05011872336272722,1,0.503732361999937
24,653,Decrease,0.25,0.1,0.015848931924611127,1,0.4909739949998766
24,654,Control,0.0,0.25,0.01995262314968879,0,0.590247289999752
24,655,Equal,0.1,0.1,0.015848931924611127,1,0.5696538430001965
24,656,Decrease,0.25,0.1,0.012589254117941666,0,0.5255007180003304
24,657,Control,0.0,0.25,0.025118864315095794,0,0.7206847609995748
24,658,Control,0.0,0.1,0.012589254117941666,0,0.6443476490003377
24,659,Decrease,0.25,0.1,0.015848931924611127,1,0.600141512000846
24,660,Equal,0.25,0.25,0.015848931924611127,1,0.4639684860012494
24,661,Increase,0.1,0.25,0.012589254117941666,0,0.6754851830010011
24,662,Decrease,0.25,0.1,0.012589254117941666,0,0.6118635349994292
24,663,Equal,0.1,0.1,0.012589254117941666,0,0.5919177809992107
24,664,Equal_null,0.1,0.1,0.01995262314968879,1,0.5450244109997584
24,665,Control,0.0,0.25,0.031622776601683784,1,0.5564177460000792
24,666,Equal,0.1,0.1,0.015848931924611127,1,0.8313210359992809
24,667,Control,0.0,0.25,0.02511886431509579,1,0.48267149400089693
24,668,Control,0.0,0.1,0.015848931924611127,1,0.41366952099997434
24,669,Control,0.0,0.25,0.01995262314968879,0,0.6340747109989024
24,670,Decrease,0.25,0.1,0.015848931924611127,1,0.49235517699889897
24,671,Control,0.0,0.1,0.012589254117941666,1,0.538103881999632
24,672,Increase,0.1,0.25,0.015848931924611127,1,0.5565340430002834
24,673,Equal,0.25,0.25,0.012589254117941666,0,99
24,674,Equal,0.1,0.1,0.012589254117941666,0,99
24,675,Control,0.0,0.1,0.009999999999999995,0,0.44123287300135416
24,676,Increase,0.1,0.25,0.012589254117941666,0,99
24,677,Equal,0.25,0.25,0.015848931924611127,1,1.2213086869996914
24,678,Equal,0.1,0.1,0.015848931924611127,1,0.5446908710000571
24,679,Control,0.0,0.1,0.012589254117941666,0,0.22786557899962645
24,680,Control,0.0,0.1,0.015848931924611127,1,0.5920492040004319
24,681,Decrease,0.25,0.1,0.012589254117941666,0,0.4193363270005648
24,682,Decrease,0.25,0.1,0.015848931924611127,1,0.4785632210005133
24,683,Increase,0.1,0.25,0.015848931924611127,0,0.3934834730007424
24,684,Equal_null,0.25,0.25,0.00794328234724281,1,0.38067788499938615
24,685,Control,0.0,0.1,0.012589254117941666,0,0.552958613001465
24,686,Control,0.0,0.25,0.025118864315095794,1,0.5291354080000019
24,687,Equal,0.1,0.1,0.012589254117941666,0,0.6122799090007902
24,688,Equal,0.1,0.1,0.015848931924611127,0,0.32561993000126677
24,689,Decrease,0.25,0.1,0.012589254117941666,0,0.27284789700024703
24,690,Increase,0.1,0.25,0.01995262314968879,0,0.6100474860013492
24,691,Equal,0.25,0.25,0.012589254117941666,0,0.4612735970003996
24,692,Equal,0.25,0.25,0.015848931924611127,0,0.8245352339999954
24,693,Control_null,0.0,0.25,0.015848931924611127,1,0.8111548140004743
24,694,Equal,0.1,0.1,0.01995262314968879,1,0.6546322800004418
24,695,Increase,0.1,0.25,0.025118864315095794,1,0.4911071179994906
24,696,Equal,0.1,0.1,0.015848931924611127,1,0.6540026099992247
24,697,Decrease,0.25,0.1,0.015848931924611127,0,0.5279555300003267
24,698,Control_null,0.0,0.25,0.012589254117941666,1,0.397521887000039
24,699,Increase,0.1,0.25,0.01995262314968879,1,0.5656453560004593
24,700,Equal,0.25,0.25,0.01995262314968879,1,0.4977134119999391
24,701,Equal,0.1,0.1,0.012589254117941666,0,0.4580418160003319
24,702,Control,0.0,0.1,0.015848931924611127,1,0.6215094950002822
24,703,Equal,0.25,0.25,0.015848931924611127,1,0.5993267070007278
24,704,Increase,0.1,0.25,0.015848931924611127,1,0.5705572919996484
24,705,Increase,0.1,0.25,0.012589254117941666,0,0.509580701998857
24,706,Decrease,0.25,0.1,0.01995262314968879,0,0.6409824829988793
24,707,Increase,0.1,0.25,0.015848931924611127,1,0.8833071249991917
24,708,Control,0.0,0.1,0.012589254117941666,0,0.4475411779985734
24,709,Control,0.0,0.25,0.01995262314968879,1,0.8191954370013264
24,710,Increase,0.1,0.25,0.012589254117941666,0,0.5096113559993682
24,711,Control_null,0.0,0.1,0.03981071705534971,0,99
24,712,Equal_null,0.1,0.1,0.015848931924611127,1,0.3060792090000177
24,713,Equal,0.1,0.1,0.015848931924611127,0,0.5489233619991865
24,714,Decrease,0.25,0.1,0.025118864315095794,1,0.5496411679996527
24,715,Control,0.0,0.1,0.015848931924611127,1,0.5842723109999497
24,716,Control_null,0.0,0.25,0.009999999999999995,1,0.5467763950000517
24,717,Equal,0.25,0.25,0.012589254117941666,0,0.3659637559994735
24,718,Control,0.0,0.1,0.012589254117941666,0,0.34514339999986987
24,719,Decrease,0.25,0.1,0.01995262314968879,1,0.5404222840006696
24,720,Control,0.0,0.1,0.015848931924611127,0,0.7884609069988073
24,721,Decrease,0.25,0.1,0.015848931924611127,0,0.43971704700015835
24,722,Decrease,0.25,0.1,0.01995262314968879,0,0.4107570929991198
24,723,Equal,0.1,0.1,0.01995262314968879,1,0.527165948999027
24,724,Control,0.0,0.1,0.01995262314968879,0,0.4370742790015356
24,725,Equal,0.25,0.25,0.015848931924611127,0,0.4384655060002842
24,726,Decrease,0.25,0.1,0.025118864315095794,1,0.6104551520002133
24,727,Equal,0.25,0.25,0.01995262314968879,1,0.44469621399912285
24,728,Control,0.0,0.25,0.015848931924611127,1,0.5325301659995603
24,729,Increase,0.1,0.25,0.015848931924611127,0,0.5117375059999176
24,730,Control,0.0,0.1,0.025118864315095794,1,0.4813664779994724
24,731,Control,0.0,0.1,0.01995262314968879,0,0.8284848669991334
24,732,Decrease,0.25,0.1,0.01995262314968879,1,1.006615303000217
24,733,Control,0.0,0.1,0.025118864315095794,1,0.6417745690014272
24,734,Control,0.0,0.25,0.012589254117941666,0,0.4861132579990226
24,735,Equal,0.25,0.25,0.015848931924611127,0,0.7533182139995915
24,736,Increase,0.1,0.25,0.01995262314968879,1,0.533960881000894
24,737,Equal,0.25,0.25,0.01995262314968879,1,0.5458415470002365
24,738,Increase,0.1,0.25,0.015848931924611127,1,0.3799570720002521
24,739,Control,0.0,0.1,0.01995262314968879,1,0.33593042100073944
24,740,Equal,0.25,0.25,0.015848931924611127,1,0.427299283001048
24,741,Control_null,0.0,0.1,0.05011872336272721,1,0.4672128070014878
24,742,Equal,0.25,0.25,0.012589254117941666,0,0.41452094499982195
24,743,Increase,0.1,0.25,0.012589254117941666,0,0.3197839029999159
24,744,Increase,0.1,0.25,0.015848931924611127,0,0.5229634239985899
24,745,Control,0.0,0.1,0.015848931924611127,0,0.43805371900089085
24,746,Decrease,0.25,0.1,0.015848931924611127,1,0.38536190099875967
24,747,Equal,0.25,0.25,0.015848931924611127,1,0.34845916599988414
24,748,Control_null,0.0,0.25,0.00794328234724281,1,0.4796419670001342
24,749,Equal_null,0.1,0.1,0.012589254117941666,1,0.5005655519998982
24,750,Control,0.0,0.1,0.01995262314968879,0,0.6003044720000617
24,751,Control,0.0,0.25,0.015848931924611127,1,0.4824753980010428
24,752,Increase,0.1,0.25,0.01995262314968879,0,0.4145064000003913
24,753,Decrease,0.25,0.1,0.012589254117941666,0,0.409181411998361
24,754,Control,0.0,0.1,0.025118864315095794,1,0.6898199229999591
24,755,Equal,0.25,0.25,0.012589254117941666,0,0.4848664099990856
24,756,Control_null,0.0,0.1,0.03981071705534971,1,0.4533023959993443
24,757,Control,0.0,0.25,0.012589254117941666,0,0.5532939240001724
24,758,Increase,0.1,0.25,0.025118864315095794,1,0.7004607919989212
24,759,Increase,0.1,0.25,0.01995262314968879,0,0.4717080009995698
24,760,Decrease,0.25,0.1,0.015848931924611127,0,0.4430166959991766
24,761,Control,0.0,0.25,0.015848931924611127,0,0.918217086000368
24,762,Decrease,0.25,0.1,0.01995262314968879,1,0.5466729609997856
24,763,Equal,0.25,0.25,0.015848931924611127,1,0.9037088950008183
24,764,Control,0.0,0.1,0.01995262314968879,1,0.45000941999933275
24,765,Decrease,0.25,0.1,0.015848931924611127,0,0.23491792300046654
24,766,Equal,0.25,0.25,0.012589254117941666,0,0.5418922589997237
24,767,Equal,0.25,0.25,0.015848931924611127,1,0.6619736270004069
24,768,Decrease,0.25,0.1,0.01995262314968879,1,0.5771775080011139
24,769,Increase,0.1,0.25,0.025118864315095794,1,0.3304523209990293
24,770,Control,0.0,0.25,0.01995262314968879,1,0.4696738650000043
24,771,Increase,0.1,0.25,0.01995262314968879,1,0.5928970469994965
24,772,Increase,0.1,0.25,0.015848931924611127,1,0.47580579100031173
24,773,Control,0.0,0.1,0.015848931924611127,1,0.5352840830000787
24,774,Control,0.0,0.1,0.012589254117941666,0,99
24,775,Control,0.0,0.1,0.015848931924611127,1,0.535032425999816
24,776,Control_null,0.0,0.1,0.031622776601683784,1,0.5399445240000205
24,777,Control,0.0,0.25,0.015848931924611127,1,0.6771659010009898
24,778,Control,0.0,0.1,0.012589254117941666,0,0.35202611800013983
24,779,Increase,0.1,0.25,0.012589254117941666,0,0.49944628500088584
24,780,Control,0.0,0.25,0.012589254117941666,0,0.5076907890015718
24,781,Control,0.0,0.25,0.015848931924611127,1,0.6788040439987526
24,782,Control,0.0,0.1,0.015848931924611127,1,0.4000922039995203
24,783,Control,0.0,0.1,0.012589254117941666,0,0.4591868359984801
24,784,Equal,0.25,0.25,0.012589254117941666,0,0.5103178030003619
24,785,Control,0.0,0.1,0.015848931924611127,0,0.6177676400002383
24,786,Increase,0.1,0.25,0.015848931924611127,0,0.6207803990000684
24,787,Increase,0.1,0.25,0.01995262314968879,1,0.5287329349994252
24,788,Control,0.0,0.25,0.012589254117941666,0,0.5175184670006274
24,789,Equal,0.25,0.25,0.015848931924611127,0,0.46583069799999066
24,790,Control,0.0,0.1,0.01995262314968879,0,0.556473279999409
24,791,Control,0.0,0.25,0.015848931924611127,1,0.7036849559990515
24,792,Increase,0.1,0.25,0.015848931924611127,1,0.4108608650003589
24,793,Increase,0.1,0.25,0.012589254117941666,0,0.435132591999718
24,794,Equal,0.25,0.25,0.01995262314968879,0,0.46227276300123776
24,795,Control,0.0,0.25,0.012589254117941666,0,0.19927754500167794
24,796,Increase,0.1,0.25,0.015848931924611127,0,0.3944836139999097
24,797,Increase,0.1,0.25,0.01995262314968879,0,0.5347904130012466
24,798,Control,0.0,0.25,0.015848931924611127,0,0.8662506330001634
24,799,Control,0.0,0.25,0.01995262314968879,0,0.5413821869988169
24,800,Increase,0.1,0.25,0.025118864315095794,1,0.5282984610003041
24,801,Increase,0.1,0.25,0.01995262314968879,1,0.5809965659991576
24,802,Increase,0.1,0.25,0.015848931924611127,1,0.4167673720003222
24,803,Control,0.0,0.25,0.025118864315095794,0,0.7027549899994483
24,804,Increase,0.1,0.25,0.012589254117941666,0,0.47108619900063786
24,805,Control,0.0,0.25,0.031622776601683784,1,0.5383525669985829
24,806,Control,0.0,0.25,0.02511886431509579,1,0.5305514270003187
24,807,Control,0.0,0.25,0.01995262314968879,1,0.6217584269998042
24,808,Control,0.0,0.25,0.015848931924611127,0,0.5108335929999157
24,809,Control,0.0,0.25,0.01995262314968879,1,0.5059407129992906
24,810,Control,0.0,0.25,0.015848931924611127,0,0.44614326099872414
24,811,Control,0.0,0.25,0.01995262314968879,0,0.34528997099914704
24,812,Control,0.0,0.25,0.025118864315095794,0,0.41274911100117606
24,813,Equal_null,0.25,0.25,0.0063095734448019285,0,99
24,814,Equal_null,0.1,0.1,0.009999999999999995,1,0.4587075569997978
24,815,Control_null,0.0,0.1,0.02511886431509579,0,99
24,816,Control_null,0.0,0.1,0.031622776601683784,1,0.8300809499996831
24,817,Equal_null,0.25,0.25,0.00794328234724281,1,0.38112142700083496
24,818,Decrease_null,0.25,0.1,0.05011872336272722,1,0.24038593100158323
24,819,Control_null,0.0,0.1,0.02511886431509579,1,0.3380479120005475
24,820,Decrease_null,0.25,0.1,0.03981071705534971,1,0.4842488960002811
24,821,Equal_null,0.1,0.1,0.00794328234724281,1,0.4222787100006826
24,822,Decrease_null,0.25,0.1,0.031622776601683784,1,0.18247580800016294
24,823,Control_null,0.0,0.1,0.01995262314968879,0,99
24,824,Decrease_null,0.25,0.1,0.02511886431509579,1,0.5177641570007836
24,825,Decrease_null,0.25,0.1,0.01995262314968879,1,0.38620552699831023
24,826,Control_null,0.0,0.1,0.025118864315095794,1,0.22924478400091175
24,827,Control_null,0.0,0.1,0.01995262314968879,1,0.39256389799993485
24,828,Decrease_null,0.25,0.1,0.015848931924611127,1,0.08466598899940436
24,829,Increase_null,0.1,0.25,0.03981071705534971,1,0.4215502539991576
24,830,Increase_null,0.1,0.25,0.031622776601683784,1,0.2167846849988564
24,831,Decrease_null,0.25,0.1,0.012589254117941666,1,0.3891428179995273
24,832,Decrease_null,0.25,0.1,0.009999999999999995,1,0.5252839790009602
24,833,Increase_null,0.1,0.25,0.02511886431509579,1,0.4722021659999882
24,834,Increase_null,0.1,0.25,0.01995262314968879,0,99
24,835,Decrease_null,0.25,0.1,0.00794328234724281,1,0.46997118199942634
24,836,Increase_null,0.1,0.25,0.025118864315095794,1,0.520727473000079
24,837,Increase_null,0.1,0.25,0.01995262314968879,1,0.4282177730001422
24,838,Increase_null,0.1,0.25,0.015848931924611127,1,0.4244606289994408
24,839,Increase_null,0.1,0.25,0.012589254117941666,1,0.6117371430009371
