Participant_Number,Trial_Number,Condition,FC_distal,FC_proximal,Target_Contrast,Correct_Response,Reaction_Time
27,0,Control,0.0,0.1,0.1,1,0.4524980019996292
27,1,Equal_null,0.25,0.25,0.1,0,0.9722875070001464
27,2,Control,0.0,0.25,0.1,1,0.2965654239997093
27,3,Decrease,0.25,0.1,0.1,1,0.3842460750020109
27,4,Equal,0.1,0.1,0.1,1,0.3153703889984172
27,5,Equal,0.25,0.25,0.1,1,0.3410160149978765
27,6,Control,0.0,0.25,0.07943282347242815,1,0.5040638219979883
27,7,Control,0.0,0.1,0.07943282347242815,1,0.434840237001481
27,8,Increase,0.1,0.25,0.1,1,0.48636477399850264
27,9,Decrease,0.25,0.1,0.07943282347242815,1,0.71468564099996
27,10,Control,0.0,0.1,0.06309573444801932,1,0.49400530800267006
27,11,Decrease,0.25,0.1,0.06309573444801932,1,0.41722247199868434
27,12,Equal,0.1,0.1,0.07943282347242815,1,0.4138027980006882
27,13,Equal,0.25,0.25,0.07943282347242815,1,0.5294072040014726
27,14,Decrease,0.25,0.1,0.05011872336272722,1,0.18569602299976395
27,15,Decrease,0.25,0.1,0.03981071705534971,1,0.4697310119991016
27,16,Equal_null,0.25,0.25,0.1,0,0.5740607999978238
27,17,Control,0.0,0.1,0.05011872336272722,1,0.561246740999195
27,18,Decrease,0.25,0.1,0.031622776601683784,1,0.5783125310008472
27,19,Equal,0.25,0.25,0.06309573444801932,1,0.5883621350003523
27,20,Decrease_null,0.25,0.1,0.1,1,0.32756797799811466
27,21,Control_null,0.0,0.1,0.1,1,0.6111486390000209
27,22,Control_null,0.0,0.1,0.07943282347242815,1,0.5660765190004895
27,23,Control,0.0,0.1,0.03981071705534971,1,0.36915635500190547
27,24,Decrease,0.25,0.1,0.02511886431509579,1,0.26181102500049747
27,25,Equal,0.1,0.1,0.06309573444801932,1,0.3379620279993105
27,26,Equal,0.1,0.1,0.05011872336272722,1,0.3417971070011845
27,27,Equal,0.25,0.25,0.05011872336272722,1,0.30209135499899276
27,28,Equal,0.1,0.1,0.03981071705534971,1,0.545143088002078
27,29,Increase,0.1,0.25,0.07943282347242815,1,0.3544404319982277
27,30,Equal,0.25,0.25,0.03981071705534971,1,0.4856501130016113
27,31,Control,0.0,0.25,0.06309573444801932,1,0.39857434399891645
27,32,Equal,0.1,0.1,0.031622776601683784,1,0.38485202100127935
27,33,Increase,0.1,0.25,0.06309573444801932,1,0.39618022500144434
27,34,Increase,0.1,0.25,0.05011872336272722,1,0.36712495100073284
27,35,Equal,0.1,0.1,0.02511886431509579,1,0.42638182600057917
27,36,Control,0.0,0.25,0.05011872336272722,1,0.3667975739990652
27,37,Decrease,0.25,0.1,0.01995262314968879,0,0.49819863199809333
27,38,Increase,0.1,0.25,0.03981071705534971,1,0.4849545860015496
27,39,Decrease,0.25,0.1,0.025118864315095794,1,0.5716175839988864
27,40,Control,0.0,0.1,0.031622776601683784,1,0.4353804689999379
27,41,Control,0.0,0.25,0.03981071705534971,1,0.3424975160014583
27,42,Decrease,0.25,0.1,0.01995262314968879,1,0.4306377680004516
27,43,Control,0.0,0.1,0.02511886431509579,1,0.44197641899882
27,44,Decrease,0.25,0.1,0.015848931924611127,1,0.5078615769998578
27,45,Equal,0.1,0.1,0.01995262314968879,1,0.6390848369992455
27,46,Equal,0.1,0.1,0.015848931924611127,1,0.4827519520003989
27,47,Increase,0.1,0.25,0.031622776601683784,1,0.4866983620013343
27,48,Equal,0.1,0.1,0.012589254117941666,0,0.6255840670019097
27,49,Decrease,0.25,0.1,0.012589254117941666,0,0.45403284699932556
27,50,Equal,0.1,0.1,0.015848931924611127,0,0.6481702240016602
27,51,Increase,0.1,0.25,0.02511886431509579,0,0.6286272569996072
27,52,Control,0.0,0.1,0.01995262314968879,1,0.4535716250029509
27,53,Equal,0.25,0.25,0.031622776601683784,1,0.42474114899960114
27,54,Control,0.0,0.1,0.015848931924611127,1,0.3961415979974845
27,55,Control,0.0,0.1,0.012589254117941666,0,0.4919618450003327
27,56,Control,0.0,0.1,0.015848931924611127,0,0.7194395480000821
27,57,Equal_null,0.25,0.25,0.1,1,0.7695875739991607
27,58,Decrease,0.25,0.1,0.015848931924611127,0,0.7167684320011176
27,59,Increase,0.1,0.25,0.031622776601683784,1,0.4640425530014909
27,60,Decrease,0.25,0.1,0.01995262314968879,1,0.4993538390008325
27,61,Control,0.0,0.1,0.01995262314968879,1,0.4310011109992047
27,62,Equal,0.1,0.1,0.01995262314968879,1,0.387849537000875
27,63,Equal,0.1,0.1,0.015848931924611127,1,0.7907928589993389
27,64,Equal,0.25,0.25,0.02511886431509579,1,0.4817308450001292
27,65,Control,0.0,0.1,0.015848931924611127,1,0.8121544549976534
27,66,Increase,0.1,0.25,0.02511886431509579,1,0.5192527899998822
27,67,Control_null,0.0,0.25,0.1,0,0.8985397840006044
27,68,Decrease,0.25,0.1,0.015848931924611127,1,0.42627674200048205
27,69,Control,0.0,0.1,0.012589254117941666,1,0.6699593390003429
27,70,Control_null,0.0,0.1,0.06309573444801932,1,0.7760543000003963
27,71,Increase,0.1,0.25,0.01995262314968879,1,0.771250900997984
27,72,Increase,0.1,0.25,0.015848931924611127,1,0.7023539699985122
27,73,Equal,0.1,0.1,0.012589254117941666,1,0.769760650000535
27,74,Decrease,0.25,0.1,0.012589254117941666,0,0.7098072080007114
27,75,Equal,0.25,0.25,0.01995262314968879,1,0.5380413620005129
27,76,Decrease,0.25,0.1,0.015848931924611127,1,0.8122483840015775
27,77,Control,0.0,0.1,0.009999999999999995,1,1.007998597000551
27,78,Equal,0.25,0.25,0.015848931924611127,0,0.7283441629988374
27,79,Decrease_null,0.25,0.1,0.07943282347242815,0,0.6115591019988642
27,80,Decrease,0.25,0.1,0.012589254117941666,1,0.7437913299982029
27,81,Increase,0.1,0.25,0.012589254117941666,0,99
27,82,Decrease,0.25,0.1,0.009999999999999995,1,0.46721283399892855
27,83,Equal,0.1,0.1,0.009999999999999995,0,0.43724345800001174
27,84,Decrease,0.25,0.1,0.00794328234724281,0,0.5522985569987213
27,85,Increase,0.1,0.25,0.015848931924611127,0,0.7967268169995805
27,86,Equal,0.1,0.1,0.012589254117941666,0,0.7201911909978662
27,87,Decrease,0.25,0.1,0.009999999999999995,1,0.48328687799948966
27,88,Control,0.0,0.25,0.031622776601683784,1,0.4804295590001857
27,89,Equal,0.25,0.25,0.01995262314968879,1,1.0166096220018517
27,90,Equal,0.1,0.1,0.015848931924611127,0,1.0038884070017957
27,91,Equal,0.1,0.1,0.01995262314968879,0,1.1089147310012777
27,92,Equal,0.25,0.25,0.015848931924611127,1,0.6402669620001689
27,93,Equal,0.1,0.1,0.025118864315095794,1,0.37882191900280304
27,94,Control,0.0,0.1,0.00794328234724281,1,0.5009520220010018
27,95,Control_null,0.0,0.25,0.1,0,0.8160424099987722
27,96,Decrease,0.25,0.1,0.00794328234724281,1,0.6829928160004783
27,97,Control,0.0,0.1,0.0063095734448019285,0,0.7029033609978796
27,98,Increase,0.1,0.25,0.01995262314968879,1,0.7602928759988572
27,99,Control_null,0.0,0.25,0.1,0,0.9875091980029538
27,100,Control,0.0,0.25,0.02511886431509579,1,0.6167363109998405
27,101,Equal,0.25,0.25,0.012589254117941666,0,0.5902922759996727
27,102,Control,0.0,0.25,0.01995262314968879,1,0.44685256400043727
27,103,Decrease,0.25,0.1,0.0063095734448019285,1,0.7378313210028864
27,104,Control,0.0,0.25,0.015848931924611127,1,0.6594133689977753
27,105,Control,0.0,0.25,0.012589254117941666,1,0.8305365369997162
27,106,Increase,0.1,0.25,0.015848931924611127,1,0.6737383360014064
27,107,Control,0.0,0.1,0.00794328234724281,0,1.041673861000163
27,108,Decrease,0.25,0.1,0.005011872336272719,1,0.6531397319995449
27,109,Control,0.0,0.1,0.009999999999999995,0,0.9280282459985756
27,110,Equal,0.1,0.1,0.01995262314968879,0,0.9875592610005697
27,111,Control_null,0.0,0.1,0.05011872336272722,0,99
27,112,Equal_null,0.25,0.25,0.07943282347242815,1,1.2817560920011601
27,113,Control,0.0,0.1,0.012589254117941666,1,0.9761333200003719
27,114,Decrease,0.25,0.1,0.00398107170553497,0,0.7967338210000889
27,115,Equal,0.1,0.1,0.025118864315095794,1,0.7173703059997933
27,116,Equal_null,0.25,0.25,0.06309573444801932,1,0.6321206169996003
27,117,Increase,0.1,0.25,0.012589254117941666,1,0.7058703229995444
27,118,Equal,0.25,0.25,0.015848931924611127,0,0.7401657689988497
27,119,Control,0.0,0.1,0.009999999999999995,0,0.943236628001614
27,120,Equal_null,0.25,0.25,0.05011872336272722,1,0.8618513820001681
27,121,Equal,0.1,0.1,0.01995262314968879,1,0.505871606997971
27,122,Decrease,0.25,0.1,0.00501187233627272,0,0.5700669060024666
27,123,Decrease,0.25,0.1,0.006309573444801929,0,0.5012514320005721
27,124,Control_null,0.0,0.25,0.1,1,0.5777386969966756
27,125,Equal,0.25,0.25,0.01995262314968879,0,0.6844482390006306
27,126,Control,0.0,0.1,0.012589254117941666,0,0.6078496989975974
27,127,Equal,0.25,0.25,0.025118864315095794,0,0.7390967669998645
27,128,Equal_null,0.25,0.25,0.03981071705534971,1,0.6303688990010414
27,129,Decrease,0.25,0.1,0.007943282347242812,0,0.8433997220017773
27,130,Control,0.0,0.25,0.009999999999999995,0,1.0161688070002128
27,131,Increase_null,0.1,0.25,0.1,1,0.7686442429985618
27,132,Decrease,0.25,0.1,0.009999999999999997,0,0.764133294000203
27,133,Increase,0.1,0.25,0.009999999999999995,0,0.957163422001031
27,134,Increase,0.1,0.25,0.012589254117941666,0,1.1922715259970573
27,135,Increase,0.1,0.25,0.015848931924611127,1,0.6015595129974827
27,136,Increase,0.1,0.25,0.012589254117941666,0,0.6608961769998132
27,137,Decrease_null,0.25,0.1,0.1,1,0.7359443409986852
27,138,Decrease,0.25,0.1,0.012589254117941668,0,0.6829126739976346
27,139,Increase,0.1,0.25,0.015848931924611127,0,99
27,140,Decrease,0.25,0.1,0.01584893192461113,0,0.3454196319980838
27,141,Control,0.0,0.1,0.015848931924611127,1,0.5653014509989589
27,142,Control,0.0,0.1,0.012589254117941666,0,0.7217044240023824
27,143,Equal_null,0.25,0.25,0.031622776601683784,1,0.7580396949997521
27,144,Equal,0.25,0.25,0.031622776601683784,1,0.6220760920004977
27,145,Decrease,0.25,0.1,0.019952623149688792,1,0.5302870349987643
27,146,Control,0.0,0.1,0.015848931924611127,1,0.41876556699935463
27,147,Control,0.0,0.1,0.012589254117941666,0,0.7566754569998011
27,148,Equal,0.1,0.1,0.015848931924611127,1,0.5580949510003848
27,149,Equal,0.1,0.1,0.012589254117941666,0,1.0410399940010393
27,150,Control_null,0.0,0.25,0.07943282347242815,1,0.8040075790013361
27,151,Decrease,0.25,0.1,0.01584893192461113,1,0.7194525519989838
27,152,Increase,0.1,0.25,0.01995262314968879,0,0.7786620020015107
27,153,Control_null,0.0,0.1,0.06309573444801932,1,0.9258687080000527
27,154,Equal,0.25,0.25,0.02511886431509579,1,0.5702721679990645
27,155,Increase,0.1,0.25,0.025118864315095794,1,0.5181714540012763
27,156,Increase_null,0.1,0.25,0.07943282347242815,1,0.611499303002347
27,157,Control,0.0,0.25,0.012589254117941666,1,0.7958041590027278
27,158,Equal,0.1,0.1,0.015848931924611127,1,0.838718830000289
27,159,Control,0.0,0.1,0.015848931924611127,0,0.6158804869992309
27,160,Decrease_null,0.25,0.1,0.07943282347242815,1,0.7471643449971452
27,161,Control,0.0,0.25,0.009999999999999995,0,0.6765486410004087
27,162,Control,0.0,0.25,0.012589254117941666,0,0.6877018309969571
27,163,Control,0.0,0.1,0.01995262314968879,1,0.6254463410004973
27,164,Equal,0.25,0.25,0.01995262314968879,1,0.8526431700011017
27,165,Decrease,0.25,0.1,0.012589254117941668,0,1.1200878710005782
27,166,Equal,0.25,0.25,0.015848931924611127,1,0.7631459730000643
27,167,Increase,0.1,0.25,0.01995262314968879,1,0.5984479490034573
27,168,Equal,0.25,0.25,0.012589254117941666,0,0.6907522779983992
27,169,Decrease,0.25,0.1,0.01584893192461113,1,0.48031502399680903
27,170,Increase,0.1,0.25,0.015848931924611127,1,0.48013649199856445
27,171,Decrease,0.25,0.1,0.012589254117941668,1,0.4511127719997603
27,172,Control,0.0,0.25,0.015848931924611127,0,0.7723318690004817
27,173,Equal,0.1,0.1,0.012589254117941666,0,1.047637396997743
27,174,Equal_null,0.25,0.25,0.02511886431509579,1,1.0168316890012647
27,175,Control,0.0,0.1,0.015848931924611127,0,0.9959901400034141
27,176,Control,0.0,0.1,0.01995262314968879,0,0.8709674669989909
27,177,Control,0.0,0.1,0.025118864315095794,1,0.5782189710007515
27,178,Control,0.0,0.1,0.01995262314968879,0,0.7118173820017546
27,179,Equal,0.25,0.25,0.015848931924611127,0,0.7709180130004825
27,180,Equal,0.25,0.25,0.01995262314968879,0,0.9325015189970145
27,181,Equal,0.1,0.1,0.015848931924611127,0,0.9600632490000862
27,182,Control,0.0,0.1,0.025118864315095794,1,0.6695864879984583
27,183,Control_null,0.0,0.25,0.06309573444801932,0,99
27,184,Control,0.0,0.1,0.01995262314968879,0,0.8248092819994781
27,185,Decrease,0.25,0.1,0.009999999999999997,0,1.072657104999962
27,186,Control,0.0,0.1,0.025118864315095794,0,0.819825207003305
27,187,Increase,0.1,0.25,0.012589254117941666,0,0.7103968709998298
27,188,Equal,0.1,0.1,0.01995262314968879,0,0.8253922910007532
27,189,Equal,0.1,0.1,0.025118864315095794,1,0.5962707680009771
27,190,Equal,0.1,0.1,0.01995262314968879,1,0.8647969000012381
27,191,Equal,0.1,0.1,0.015848931924611127,1,0.5079589320012019
27,192,Equal,0.1,0.1,0.012589254117941666,1,0.6720805939985439
27,193,Decrease,0.25,0.1,0.012589254117941668,0,0.6506330000011076
27,194,Control,0.0,0.25,0.01995262314968879,0,0.7506095210010244
27,195,Control,0.0,0.25,0.025118864315095794,1,0.4336983510002028
27,196,Control,0.0,0.1,0.031622776601683784,0,0.5218958400000702
27,197,Control,0.0,0.1,0.03981071705534971,1,0.5260910500001046
27,198,Control_null,0.0,0.1,0.05011872336272722,0,1.0466200800001388
27,199,Control,0.0,0.25,0.01995262314968879,0,0.9377103229999193
27,200,Control,0.0,0.25,0.025118864315095794,1,0.7714844980000635
27,201,Control,0.0,0.1,0.031622776601683784,1,0.6706546120003622
27,202,Equal,0.25,0.25,0.025118864315095794,1,0.3619426900004328
27,203,Decrease,0.25,0.1,0.01584893192461113,1,0.5010616429972288
27,204,Control,0.0,0.25,0.01995262314968879,1,0.5033766209999158
27,205,Equal,0.1,0.1,0.009999999999999995,0,0.68522269299865
27,206,Decrease,0.25,0.1,0.012589254117941668,1,0.4614903180008696
27,207,Control,0.0,0.1,0.02511886431509579,1,0.6820456109999213
27,208,Control,0.0,0.1,0.01995262314968879,0,1.0132688240009884
27,209,Decrease,0.25,0.1,0.009999999999999997,0,1.013270230996568
27,210,Increase,0.1,0.25,0.015848931924611127,1,0.6804375139981858
27,211,Equal,0.25,0.25,0.01995262314968879,0,0.464693857000384
27,212,Control_null,0.0,0.1,0.06309573444801932,1,0.5410119819971442
27,213,Equal,0.25,0.25,0.025118864315095794,1,0.39902179799901205
27,214,Increase,0.1,0.25,0.012589254117941666,1,0.8259894839975459
27,215,Equal,0.25,0.25,0.01995262314968879,1,0.40541194199977326
27,216,Decrease,0.25,0.1,0.012589254117941668,0,0.6567083519985317
27,217,Control,0.0,0.1,0.025118864315095794,1,0.5253340669987665
27,218,Equal,0.25,0.25,0.015848931924611127,1,0.8501437000013539
27,219,Control_null,0.0,0.25,0.07943282347242814,0,1.035331043000042
27,220,Decrease,0.25,0.1,0.01584893192461113,1,0.5102018510006019
27,221,Control,0.0,0.1,0.01995262314968879,0,0.36136509100106196
27,222,Control,0.0,0.25,0.015848931924611127,0,0.674905113002751
27,223,Increase,0.1,0.25,0.009999999999999995,0,0.6300061809997715
27,224,Equal,0.1,0.1,0.012589254117941666,1,0.5978876690023753
27,225,Increase,0.1,0.25,0.012589254117941666,0,0.9534874070013757
27,226,Equal,0.1,0.1,0.009999999999999995,0,0.6846613980014808
27,227,Equal,0.1,0.1,0.012589254117941666,0,0.6317332600010559
27,228,Control,0.0,0.1,0.025118864315095794,1,0.7068989840008726
27,229,Equal,0.25,0.25,0.012589254117941666,1,0.5500794549989223
27,230,Decrease,0.25,0.1,0.012589254117941668,0,0.8838580350020493
27,231,Control,0.0,0.1,0.01995262314968879,0,0.6800777640019078
27,232,Equal,0.1,0.1,0.015848931924611127,1,0.7054993070014461
27,233,Decrease,0.25,0.1,0.01584893192461113,0,0.684660647999408
27,234,Decrease,0.25,0.1,0.019952623149688792,1,0.7118360140011646
27,235,Increase,0.1,0.25,0.015848931924611127,1,0.5211751919996459
27,236,Control,0.0,0.25,0.01995262314968879,1,0.5004868049982178
27,237,Equal,0.1,0.1,0.012589254117941666,1,0.5802482840008452
27,238,Decrease,0.25,0.1,0.01584893192461113,1,0.3914656439992541
27,239,Increase,0.1,0.25,0.012589254117941666,0,0.5056787539979268
27,240,Control,0.0,0.1,0.025118864315095794,1,0.3612757299997611
27,241,Equal,0.25,0.25,0.009999999999999995,1,0.43048680999709177
27,242,Increase,0.1,0.25,0.015848931924611127,1,0.3996109549989342
27,243,Equal,0.25,0.25,0.00794328234724281,1,0.5146945619999315
27,244,Equal,0.25,0.25,0.0063095734448019285,1,0.45870108300005086
27,245,Increase,0.1,0.25,0.012589254117941666,1,0.5340517500007991
27,246,Increase_null,0.1,0.25,0.06309573444801932,1,0.6233913510004641
27,247,Increase,0.1,0.25,0.009999999999999995,1,0.6344931249986985
27,248,Increase,0.1,0.25,0.00794328234724281,1,0.5895913849999488
27,249,Control_null,0.0,0.25,0.09999999999999999,0,0.4326521610018972
27,250,Increase_null,0.1,0.25,0.05011872336272722,1,0.7959959910003818
27,251,Decrease,0.25,0.1,0.012589254117941668,0,0.7273231250001118
27,252,Control,0.0,0.25,0.015848931924611127,1,0.4663551169978746
27,253,Increase,0.1,0.25,0.0063095734448019285,1,0.560110316000646
27,254,Equal_null,0.25,0.25,0.01995262314968879,1,0.523989838999114
27,255,Control,0.0,0.25,0.012589254117941666,0,0.6769886229994881
27,256,Equal,0.1,0.1,0.009999999999999995,0,0.43203836499742465
27,257,Increase,0.1,0.25,0.005011872336272719,0,0.4653012779999699
27,258,Increase,0.1,0.25,0.0063095734448019285,0,0.3485178549999546
27,259,Control,0.0,0.25,0.015848931924611127,1,0.7726797850009461
27,260,Increase_null,0.1,0.25,0.03981071705534971,1,0.4878866780018143
27,261,Increase,0.1,0.25,0.00794328234724281,0,0.5542112249968341
27,262,Decrease,0.25,0.1,0.01584893192461113,1,0.5655336829986481
27,263,Equal,0.1,0.1,0.012589254117941666,0,0.5123665460014308
27,264,Decrease,0.25,0.1,0.012589254117941668,0,0.8197827530020732
27,265,Equal,0.1,0.1,0.015848931924611127,1,0.5108413190027932
27,266,Equal,0.1,0.1,0.012589254117941666,1,0.3869036159994721
27,267,Control,0.0,0.25,0.012589254117941666,1,0.4318972250002844
27,268,Equal,0.1,0.1,0.009999999999999995,1,0.5685371910003596
27,269,Equal,0.25,0.25,0.005011872336272719,0,0.452580876997672
27,270,Increase_null,0.1,0.25,0.031622776601683784,1,0.5728476910007885
27,271,Control,0.0,0.25,0.009999999999999995,0,0.5119968340004561
27,272,Equal,0.1,0.1,0.00794328234724281,1,0.4890446930003236
27,273,Equal,0.25,0.25,0.0063095734448019285,1,0.6763336250005523
27,274,Equal_null,0.25,0.25,0.015848931924611127,1,0.6313309619981737
27,275,Equal,0.25,0.25,0.005011872336272719,0,0.5705214320005325
27,276,Equal,0.1,0.1,0.0063095734448019285,1,0.4778153170009318
27,277,Control,0.0,0.25,0.012589254117941666,1,0.7622567299986258
27,278,Decrease,0.25,0.1,0.01584893192461113,1,0.38916531200084137
27,279,Increase_null,0.1,0.25,0.02511886431509579,0,0.5538460319985461
27,280,Equal,0.25,0.25,0.0063095734448019285,0,0.414318587998423
27,281,Increase,0.1,0.25,0.009999999999999995,0,0.5670799079998687
27,282,Control,0.0,0.1,0.01995262314968879,1,0.6180996709990723
27,283,Equal,0.25,0.25,0.00794328234724281,0,0.7300700609994237
27,284,Increase,0.1,0.25,0.012589254117941666,0,0.6131625449997955
27,285,Equal,0.1,0.1,0.005011872336272719,0,0.5264623110015236
27,286,Equal,0.1,0.1,0.0063095734448019285,0,0.633842540999467
27,287,Increase,0.1,0.25,0.015848931924611127,1,0.41374774699943373
27,288,Control,0.0,0.1,0.015848931924611127,1,0.3611637609974423
27,289,Equal,0.25,0.25,0.009999999999999995,1,0.7723516070000187
27,290,Control,0.0,0.1,0.012589254117941666,1,0.607551681001496
27,291,Decrease_null,0.25,0.1,0.06309573444801932,1,0.7305673430018942
27,292,Increase,0.1,0.25,0.012589254117941666,0,0.8141345499971067
27,293,Control,0.0,0.1,0.009999999999999995,0,0.9140748840000015
27,294,Decrease,0.25,0.1,0.012589254117941668,1,0.9554047550009273
27,295,Control,0.0,0.1,0.012589254117941666,1,0.374530788998527
27,296,Equal_null,0.1,0.1,0.1,1,0.4303272969991667
27,297,Increase,0.1,0.25,0.015848931924611127,1,0.7138395160000073
27,298,Control,0.0,0.1,0.009999999999999995,0,0.636176127998624
27,299,Equal,0.1,0.1,0.00794328234724281,1,0.7032443830030388
27,300,Control,0.0,0.1,0.012589254117941666,1,0.5373778789980861
27,301,Control,0.0,0.25,0.009999999999999995,1,0.5323864059973857
27,302,Increase,0.1,0.25,0.012589254117941666,1,0.41588192799827084
27,303,Equal,0.25,0.25,0.00794328234724281,1,0.5329579470017052
27,304,Equal,0.25,0.25,0.0063095734448019285,0,0.5920254140000907
27,305,Equal,0.1,0.1,0.0063095734448019285,0,0.557187984999473
27,306,Control,0.0,0.1,0.009999999999999995,0,0.5516900309994526
27,307,Control,0.0,0.1,0.012589254117941666,1,0.7684667469984561
27,308,Decrease_null,0.25,0.1,0.05011872336272722,1,0.7560660340022878
27,309,Equal,0.25,0.25,0.00794328234724281,0,0.6920690959996136
27,310,Control,0.0,0.25,0.00794328234724281,0,0.5043969969992759
27,311,Decrease,0.25,0.1,0.009999999999999997,0,0.43338750499970047
27,312,Control,0.0,0.25,0.009999999999999995,0,0.9805329599985271
27,313,Control,0.0,0.25,0.012589254117941666,0,0.8558637200003432
27,314,Decrease,0.25,0.1,0.012589254117941668,0,0.8361716079998587
27,315,Control_null,0.0,0.25,0.1,0,0.5351915789979103
27,316,Equal,0.25,0.25,0.009999999999999995,1,0.387416072000633
27,317,Increase,0.1,0.25,0.009999999999999995,0,0.5594439119995513
27,318,Equal,0.1,0.1,0.00794328234724281,0,0.615749433000019
27,319,Control,0.0,0.1,0.009999999999999995,1,0.39507733000209555
27,320,Control,0.0,0.25,0.015848931924611127,1,0.3627592650009319
27,321,Equal_null,0.25,0.25,0.012589254117941666,1,0.5821841159995529
27,322,Decrease_null,0.25,0.1,0.03981071705534971,1,0.5584605149997515
27,323,Equal,0.1,0.1,0.009999999999999995,1,0.6587844280002173
27,324,Equal,0.25,0.25,0.00794328234724281,0,0.6689180899993517
27,325,Control,0.0,0.25,0.012589254117941666,0,0.9121453970001312
27,326,Equal,0.1,0.1,0.00794328234724281,1,0.4832176769996295
27,327,Equal,0.1,0.1,0.0063095734448019285,0,0.7344643830001587
27,328,Equal_null,0.1,0.1,0.07943282347242815,1,0.7855524199985666
27,329,Control,0.0,0.1,0.00794328234724281,0,0.893679886998143
27,330,Equal,0.25,0.25,0.009999999999999995,0,0.6083112950000213
27,331,Equal,0.25,0.25,0.012589254117941666,0,0.6669709359994158
27,332,Decrease,0.25,0.1,0.01584893192461113,0,0.4713230930028658
27,333,Control,0.0,0.1,0.009999999999999995,0,0.5755596460003289
27,334,Equal,0.1,0.1,0.00794328234724281,1,0.8266534319991479
27,335,Equal,0.25,0.25,0.015848931924611127,1,0.547196660998452
27,336,Control,0.0,0.25,0.015848931924611127,1,0.4152111059993331
27,337,Equal,0.25,0.25,0.012589254117941666,1,0.6091883840017545
27,338,Control,0.0,0.25,0.012589254117941666,1,0.47648246299650054
27,339,Increase,0.1,0.25,0.012589254117941666,1,0.4153164099989226
27,340,Equal,0.25,0.25,0.009999999999999995,0,0.6666983680006524
27,341,Control,0.0,0.1,0.012589254117941666,1,0.6469634160021087
27,342,Equal,0.1,0.1,0.0063095734448019285,1,0.5972121310005605
27,343,Equal,0.25,0.25,0.012589254117941666,1,0.5820880719984416
27,344,Increase,0.1,0.25,0.009999999999999995,1,0.40254682199883973
27,345,Equal,0.25,0.25,0.009999999999999995,1,0.8619329449975339
27,346,Decrease_null,0.25,0.1,0.031622776601683784,0,0.8457031470024958
27,347,Equal,0.25,0.25,0.00794328234724281,1,0.54502175000016
27,348,Increase,0.1,0.25,0.00794328234724281,1,0.4745031780003046
27,349,Control,0.0,0.25,0.009999999999999995,1,0.5256586810028239
27,350,Control,0.0,0.25,0.00794328234724281,1,0.4796734350020415
27,351,Increase_null,0.1,0.25,0.031622776601683784,0,0.47488920600153506
27,352,Control,0.0,0.25,0.0063095734448019285,1,0.39815154100142536
27,353,Control,0.0,0.25,0.005011872336272719,1,0.345187264996639
27,354,Control,0.0,0.1,0.009999999999999995,0,0.4868827190002776
27,355,Control,0.0,0.1,0.012589254117941666,1,1.0257146719995944
27,356,Equal,0.1,0.1,0.005011872336272719,1,0.6691490030025307
27,357,Control,0.0,0.25,0.00398107170553497,1,0.576209053000639
27,358,Increase,0.1,0.25,0.0063095734448019285,0,0.7083392339991406
27,359,Equal_null,0.1,0.1,0.06309573444801932,1,0.6593768659986381
27,360,Control,0.0,0.1,0.009999999999999995,1,0.5559290740020515
27,361,Control,0.0,0.25,0.0031622776601683772,1,0.5635845179967873
27,362,Equal,0.1,0.1,0.00398107170553497,1,0.5360671749986068
27,363,Equal,0.25,0.25,0.0063095734448019285,1,0.5683660630020313
27,364,Control,0.0,0.25,0.002511886431509578,0,0.5235158830000728
27,365,Equal,0.1,0.1,0.0031622776601683772,1,0.39847134899900993
27,366,Equal,0.1,0.1,0.002511886431509578,1,0.37767611799790757
27,367,Equal,0.1,0.1,0.001995262314968878,0,0.6370861470022646
27,368,Control,0.0,0.25,0.0031622776601683772,1,0.5440062540001236
27,369,Decrease,0.25,0.1,0.019952623149688792,1,0.7089902449988585
27,370,Increase,0.1,0.25,0.00794328234724281,1,0.6092256159972749
27,371,Equal,0.25,0.25,0.005011872336272719,0,0.5558191400014039
27,372,Increase,0.1,0.25,0.0063095734448019285,1,0.43103650999910315
27,373,Equal,0.1,0.1,0.002511886431509578,0,0.6820966569976008
27,374,Equal,0.1,0.1,0.0031622776601683772,0,0.5619534010002099
27,375,Increase,0.1,0.25,0.005011872336272719,0,0.3963976930026547
27,376,Control,0.0,0.1,0.00794328234724281,1,0.41272950699931243
27,377,Equal,0.1,0.1,0.00398107170553497,0,0.4875701100027072
27,378,Equal,0.25,0.25,0.0063095734448019285,0,0.38698795899836114
27,379,Control,0.0,0.1,0.0063095734448019285,0,0.42191419699884136
27,380,Equal,0.25,0.25,0.00794328234724281,1,0.529408821999823
27,381,Equal,0.25,0.25,0.0063095734448019285,1,0.4923484629980521
27,382,Decrease,0.25,0.1,0.01584893192461113,1,0.37709191199974157
27,383,Increase,0.1,0.25,0.0063095734448019285,1,0.46213133499986725
27,384,Control,0.0,0.1,0.00794328234724281,1,0.5145442210014153
27,385,Control,0.0,0.25,0.002511886431509578,1,0.3959141540035489
27,386,Decrease,0.25,0.1,0.012589254117941668,1,0.2954212100012228
27,387,Control,0.0,0.25,0.001995262314968878,1,0.6556591059998027
27,388,Control,0.0,0.1,0.0063095734448019285,1,0.49091618600141373
27,389,Decrease_null,0.25,0.1,0.03981071705534971,0,99
27,390,Control,0.0,0.25,0.0015848931924611121,0,0.5592367829995055
27,391,Equal,0.25,0.25,0.005011872336272719,0,0.3945958360018267
27,392,Equal,0.25,0.25,0.0063095734448019285,0,0.477628132000973
27,393,Increase,0.1,0.25,0.005011872336272719,0,0.5047392400010722
27,394,Control,0.0,0.25,0.001995262314968878,0,0.7720958889985923
27,395,Decrease,0.25,0.1,0.009999999999999997,0,0.6963650590005273
27,396,Equal,0.25,0.25,0.00794328234724281,0,0.4379498620000959
27,397,Control,0.0,0.1,0.005011872336272719,0,0.4666490359995805
27,398,Control,0.0,0.1,0.0063095734448019285,0,0.45135585599928163
27,399,Control,0.0,0.1,0.00794328234724281,1,0.4867676889989525
27,400,Equal,0.25,0.25,0.009999999999999995,1,0.6950088930025231
27,401,Control,0.0,0.25,0.002511886431509578,1,0.6514397060018382
27,402,Control,0.0,0.25,0.001995262314968878,1,0.5153898440003104
27,403,Equal,0.25,0.25,0.00794328234724281,0,0.4706203409987211
27,404,Equal,0.25,0.25,0.009999999999999995,0,0.47370311800113996
27,405,Control,0.0,0.25,0.0015848931924611121,1,0.37407176999840885
27,406,Increase,0.1,0.25,0.0063095734448019285,1,0.5292915680001897
27,407,Equal,0.25,0.25,0.012589254117941666,1,0.7084072969992121
27,408,Equal,0.25,0.25,0.009999999999999995,1,0.4645931569975801
27,409,Decrease,0.25,0.1,0.012589254117941668,1,0.34041103099661996
27,410,Equal,0.1,0.1,0.00501187233627272,1,0.3867725559975952
27,411,Control,0.0,0.25,0.001258925411794166,1,0.5148900770000182
27,412,Equal,0.25,0.25,0.00794328234724281,1,0.41447888599941507
27,413,Control,0.0,0.1,0.0063095734448019285,0,0.5423452270006237
27,414,Equal,0.25,0.25,0.0063095734448019285,0,0.4973946600002819
27,415,Equal,0.1,0.1,0.00398107170553497,0,0.4268675989987969
27,416,Decrease_null,0.25,0.1,0.05011872336272721,1,0.5101518029987346
27,417,Control,0.0,0.25,0.000999999999999999,0,0.577093739000702
27,418,Control,0.0,0.25,0.001258925411794166,0,0.3974501539996709
27,419,Control,0.0,0.25,0.001584893192461112,0,0.39165622099972097
27,420,Control,0.0,0.25,0.0019952623149688776,0,0.41839174299821025
27,421,Equal,0.25,0.25,0.00794328234724281,0,0.711306589000742
27,422,Equal,0.25,0.25,0.009999999999999995,0,0.7167637889979233
27,423,Equal,0.1,0.1,0.00501187233627272,0,0.9769347680012288
27,424,Decrease,0.25,0.1,0.009999999999999997,1,0.36948931499864557
27,425,Control,0.0,0.25,0.0025118864315095777,1,0.45203052400029264
27,426,Equal,0.1,0.1,0.006309573444801929,0,0.5487070020026295
27,427,Increase_null,0.1,0.25,0.03981071705534971,1,0.48788948899891693
27,428,Control,0.0,0.1,0.00794328234724281,1,0.3453720860015892
27,429,Decrease,0.25,0.1,0.007943282347242812,1,0.35637205799866933
27,430,Equal,0.25,0.25,0.012589254117941666,0,0.39256760200078133
27,431,Control,0.0,0.1,0.0063095734448019285,1,0.4758543619973352
27,432,Decrease,0.25,0.1,0.006309573444801929,0,0.583177329001046
27,433,Equal,0.1,0.1,0.007943282347242812,1,0.37722539699825575
27,434,Increase,0.1,0.25,0.005011872336272719,1,0.3663937109995459
27,435,Control,0.0,0.1,0.005011872336272719,0,0.6014217999982066
27,436,Equal,0.1,0.1,0.006309573444801929,1,0.5995558520007762
27,437,Equal,0.1,0.1,0.00501187233627272,1,0.6800119120016461
27,438,Control,0.0,0.25,0.0019952623149688776,0,0.7150598830012314
27,439,Control,0.0,0.25,0.0025118864315095777,1,0.5073678459993971
27,440,Increase,0.1,0.25,0.00398107170553497,0,0.5903976970002986
27,441,Control,0.0,0.1,0.0063095734448019285,0,0.6398838210006943
27,442,Equal_null,0.1,0.1,0.05011872336272722,0,0.6440725540014682
27,443,Control_null,0.0,0.1,0.05011872336272722,0,0.8390901429993392
27,444,Increase,0.1,0.25,0.00501187233627272,1,0.4823050189988862
27,445,Equal,0.25,0.25,0.015848931924611127,1,0.6376468630005547
27,446,Equal,0.25,0.25,0.012589254117941666,0,0.472566085998551
27,447,Control,0.0,0.1,0.00794328234724281,1,0.3975666439982888
27,448,Control,0.0,0.1,0.0063095734448019285,0,0.5931434260019159
27,449,Equal_null,0.1,0.1,0.06309573444801932,0,0.4903422040006262
27,450,Increase,0.1,0.25,0.00398107170553497,1,0.6214586490023066
27,451,Decrease,0.25,0.1,0.007943282347242812,1,0.345478777999233
27,452,Decrease,0.25,0.1,0.006309573444801929,1,0.42571710600168444
27,453,Equal,0.1,0.1,0.00398107170553497,1,0.5399823670013575
27,454,Decrease,0.25,0.1,0.00501187233627272,1,0.7822505360018113
27,455,Decrease,0.25,0.1,0.00398107170553497,1,0.6253241089980293
27,456,Increase,0.1,0.25,0.0031622776601683772,1,0.5004461589996936
27,457,Equal,0.25,0.25,0.015848931924611127,1,0.20869199500157265
27,458,Control,0.0,0.1,0.00794328234724281,1,0.406069512002432
27,459,Control,0.0,0.25,0.0019952623149688776,1,1.1372199559991714
27,460,Equal,0.25,0.25,0.012589254117941666,1,0.4284491149992391
27,461,Control,0.0,0.1,0.0063095734448019285,1,0.40030109500003164
27,462,Equal,0.25,0.25,0.009999999999999995,1,0.3614340509993781
27,463,Control,0.0,0.1,0.005011872336272719,1,0.5726326109979709
27,464,Control,0.0,0.1,0.00398107170553497,1,0.0721820110011322
27,465,Increase,0.1,0.25,0.002511886431509578,0,99
27,466,Increase,0.1,0.25,0.0031622776601683772,1,0.7163873450008396
27,467,Control,0.0,0.25,0.001584893192461112,0,0.4386511810007505
27,468,Increase_null,0.1,0.25,0.031622776601683784,1,0.20178314700024202
27,469,Control,0.0,0.25,0.0019952623149688776,1,0.6835686049998912
27,470,Increase,0.1,0.25,0.002511886431509578,0,0.5843317920007394
27,471,Control,0.0,0.25,0.001584893192461112,0,0.420382571999653
27,472,Equal,0.25,0.25,0.00794328234724281,0,0.7844584230006149
27,473,Control,0.0,0.25,0.0019952623149688776,0,0.602382568999019
27,474,Increase,0.1,0.25,0.0031622776601683772,0,0.5749417650004034
27,475,Control,0.0,0.1,0.0031622776601683772,0,0.9280440930015175
27,476,Control,0.0,0.1,0.00398107170553497,0,1.0432501469986164
27,477,Increase,0.1,0.25,0.00398107170553497,1,0.5904363689987804
27,478,Increase,0.1,0.25,0.0031622776601683772,0,0.5585331369984488
27,479,Increase,0.1,0.25,0.00398107170553497,0,0.6740147589989647
27,480,Control_null,0.0,0.25,0.1,0,0.36159086900079274
27,481,Control,0.0,0.1,0.00501187233627272,1,0.4447018329992716
27,482,Control,0.0,0.1,0.00398107170553497,0,0.446165856999869
27,483,Equal,0.1,0.1,0.0031622776601683772,0,0.9291705430005095
27,484,Equal,0.1,0.1,0.00398107170553497,0,0.5452245270025742
27,485,Decrease,0.25,0.1,0.0031622776601683772,1,0.41243327100164606
27,486,Control,0.0,0.1,0.00501187233627272,0,0.35206116499830387
27,487,Equal,0.25,0.25,0.009999999999999995,1,0.4747739199992793
27,488,Increase,0.1,0.25,0.00501187233627272,0,0.6138508370022464
27,489,Control,0.0,0.1,0.006309573444801929,0,0.6093570160010131
27,490,Control,0.0,0.25,0.0025118864315095777,0,0.5744825729998411
27,491,Equal_null,0.1,0.1,0.07943282347242814,0,0.6583000080026977
27,492,Increase,0.1,0.25,0.006309573444801929,0,0.644017579001229
27,493,Equal,0.25,0.25,0.00794328234724281,0,0.6960379709998961
27,494,Equal,0.25,0.25,0.009999999999999995,0,0.40319954300139216
27,495,Control,0.0,0.1,0.007943282347242812,0,0.4355458930003806
27,496,Equal_null,0.1,0.1,0.09999999999999999,1,0.4788207380006497
27,497,Decrease,0.25,0.1,0.002511886431509578,1,0.49587266300295596
27,498,Equal,0.1,0.1,0.00501187233627272,0,0.4190379320025386
27,499,Control,0.0,0.25,0.0031622776601683764,0,0.38927326099656057
27,500,Increase,0.1,0.25,0.007943282347242812,0,0.36153889400156913
27,501,Increase,0.1,0.25,0.009999999999999997,0,0.10874890999912168
27,502,Control,0.0,0.25,0.003981071705534969,0,0.343780687002436
27,503,Control,0.0,0.1,0.009999999999999997,1,0.5566111640000599
27,504,Control_null,0.0,0.1,0.06309573444801932,0,0.4734022789998562
27,505,Equal,0.25,0.25,0.012589254117941666,1,0.37099439600206097
27,506,Equal,0.25,0.25,0.009999999999999995,1,0.6225788470001135
27,507,Equal,0.25,0.25,0.00794328234724281,1,0.673831619998964
27,508,Equal,0.1,0.1,0.006309573444801929,1,0.48987670200222055
27,509,Control_null,0.0,0.25,0.1,0,0.37318845999834593
27,510,Increase,0.1,0.25,0.012589254117941668,1,0.31823942200207966
27,511,Control,0.0,0.25,0.0050118723362727186,1,0.3375516029991559
27,512,Equal,0.1,0.1,0.00501187233627272,1,0.4287650189980923
27,513,Control,0.0,0.1,0.007943282347242812,0,0.6479277920007007
27,514,Decrease,0.25,0.1,0.001995262314968878,0,0.6830566329990688
27,515,Equal,0.1,0.1,0.00398107170553497,0,0.4622841400014295
27,516,Control,0.0,0.1,0.009999999999999997,1,0.411422193999897
27,517,Increase,0.1,0.25,0.009999999999999997,1,0.36805033500058926
27,518,Equal,0.1,0.1,0.00501187233627272,1,0.7845050049982092
27,519,Equal,0.25,0.25,0.0063095734448019285,0,0.6210878109995974
27,520,Equal,0.1,0.1,0.00398107170553497,1,0.5523972529990715
27,521,Control,0.0,0.1,0.007943282347242812,1,0.5685267670014582
27,522,Decrease,0.25,0.1,0.002511886431509578,0,0.5475241159983852
27,523,Increase,0.1,0.25,0.007943282347242812,1,0.3967527329987206
27,524,Decrease,0.25,0.1,0.0031622776601683772,0,0.49591587699978845
27,525,Equal,0.1,0.1,0.0031622776601683772,1,0.37109949300065637
27,526,Control,0.0,0.1,0.006309573444801929,0,0.326156102000823
27,527,Equal,0.1,0.1,0.002511886431509578,0,0.49745562899988727
27,528,Equal,0.25,0.25,0.00794328234724281,0,0.4203935459991044
27,529,Increase,0.1,0.25,0.006309573444801929,0,0.4011432080005761
27,530,Decrease,0.25,0.1,0.00398107170553497,0,99
27,531,Increase,0.1,0.25,0.007943282347242812,0,0.34308934200089425
27,532,Decrease,0.25,0.1,0.00501187233627272,1,0.4355152589996578
27,533,Control,0.0,0.1,0.007943282347242812,0,0.36667087400201126
27,534,Control,0.0,0.25,0.003981071705534969,0,0.41452369000035105
27,535,Increase,0.1,0.25,0.009999999999999997,0,0.3616588379991299
27,536,Equal,0.1,0.1,0.0031622776601683772,0,0.6192812380031683
27,537,Equal,0.1,0.1,0.00398107170553497,0,99
27,538,Increase,0.1,0.25,0.012589254117941668,1,1.1846613060006348
27,539,Equal,0.25,0.25,0.009999999999999995,1,0.5395982720001484
27,540,Increase_null,0.1,0.25,0.02511886431509579,0,0.47204271300142864
27,541,Control,0.0,0.25,0.0050118723362727186,1,0.2030201589986973
27,542,Equal,0.25,0.25,0.00794328234724281,1,0.33576166199782165
27,543,Equal_null,0.25,0.25,0.009999999999999995,0,0.5158022649993654
27,544,Equal,0.1,0.1,0.00501187233627272,0,0.3495938810010557
27,545,Control,0.0,0.1,0.009999999999999997,1,0.7685413729996071
27,546,Decrease,0.25,0.1,0.00398107170553497,0,0.6037146659982682
27,547,Decrease,0.25,0.1,0.00501187233627272,1,0.34620581499984837
27,548,Control,0.0,0.25,0.003981071705534969,1,0.4936224639968714
27,549,Control,0.0,0.25,0.0031622776601683764,1,0.31866758500109427
27,550,Equal,0.25,0.25,0.0063095734448019285,0,0.5059049390001746
27,551,Control,0.0,0.25,0.0025118864315095777,1,0.5094137449996197
27,552,Increase,0.1,0.25,0.009999999999999997,0,99
27,553,Equal,0.25,0.25,0.00794328234724281,1,0.9234083269984694
27,554,Equal,0.25,0.25,0.0063095734448019285,0,0.8544241089985007
27,555,Control,0.0,0.25,0.0019952623149688776,0,1.0348102399984782
27,556,Increase,0.1,0.25,0.012589254117941668,1,0.8550262930002646
27,557,Equal,0.1,0.1,0.006309573444801929,0,0.7210797299994738
27,558,Control,0.0,0.25,0.0025118864315095777,0,0.5002702320016397
27,559,Control,0.0,0.1,0.007943282347242812,0,0.4604944919992704
27,560,Increase,0.1,0.25,0.009999999999999997,0,0.3995213650014193
27,561,Equal,0.25,0.25,0.00794328234724281,0,0.2745987130001595
27,562,Equal,0.1,0.1,0.007943282347242812,0,0.4998309610018623
27,563,Equal,0.25,0.25,0.009999999999999995,0,0.37524684600066394
27,564,Equal,0.1,0.1,0.009999999999999997,0,99
27,565,Equal,0.1,0.1,0.012589254117941668,0,0.5587796110012277
27,566,Equal,0.25,0.25,0.012589254117941666,0,0.4577639620001719
27,567,Control,0.0,0.1,0.009999999999999997,0,0.21301520299675758
27,568,Control,0.0,0.1,0.012589254117941668,1,0.4951489270024467
27,569,Increase,0.1,0.25,0.012589254117941668,0,99
27,570,Decrease,0.25,0.1,0.00398107170553497,1,0.19742585999847506
27,571,Increase,0.1,0.25,0.01584893192461113,1,0.11265046799962875
27,572,Increase,0.1,0.25,0.012589254117941668,0,0.4566454630003136
27,573,Control,0.0,0.25,0.0031622776601683764,0,0.2923092299970449
27,574,Control,0.0,0.1,0.009999999999999997,0,0.8150317569998151
27,575,Decrease,0.25,0.1,0.0031622776601683772,0,0.5855401560002065
27,576,Decrease,0.25,0.1,0.00398107170553497,0,0.7807718580006622
27,577,Equal,0.1,0.1,0.01584893192461113,1,0.6639117779996013
27,578,Increase,0.1,0.25,0.01584893192461113,1,0.5310607329993218
27,579,Control,0.0,0.1,0.012589254117941668,0,0.9352616059986758
27,580,Decrease_null,0.25,0.1,0.03981071705534971,1,0.46729917399716214
27,581,Control,0.0,0.25,0.003981071705534969,1,0.39908125899819424
27,582,Equal,0.1,0.1,0.012589254117941668,1,0.2509228360031557
27,583,Control_null,0.0,0.1,0.07943282347242814,0,0.4908369520017004
27,584,Control,0.0,0.25,0.0031622776601683764,1,0.36597331799930544
27,585,Increase,0.1,0.25,0.012589254117941668,1,0.366202143002738
27,586,Control,0.0,0.25,0.0025118864315095777,0,0.5854598330006411
27,587,Control,0.0,0.25,0.0031622776601683764,1,0.37190469600318465
27,588,Control,0.0,0.1,0.01584893192461113,0,99
27,589,Equal,0.1,0.1,0.009999999999999997,1,0.5461191569993389
27,590,Control,0.0,0.1,0.019952623149688792,0,99
27,591,Decrease,0.25,0.1,0.00501187233627272,1,0.5684227789970464
27,592,Decrease,0.25,0.1,0.00398107170553497,1,0.25954567799999495
27,593,Decrease,0.25,0.1,0.0031622776601683772,0,0.4558593289984856
27,594,Increase,0.1,0.25,0.009999999999999997,0,0.7621293619995413
27,595,Control,0.0,0.25,0.0025118864315095777,0,0.42345064300025115
27,596,Equal,0.1,0.1,0.007943282347242812,0,0.16746091000095475
27,597,Decrease_null,0.25,0.1,0.031622776601683784,0,99
27,598,Control,0.0,0.25,0.0031622776601683764,0,99
27,599,Equal_null,0.25,0.25,0.012589254117941666,1,0.3579602040008467
27,600,Increase,0.1,0.25,0.012589254117941668,1,0.3820095190021675
27,601,Control_null,0.0,0.1,0.09999999999999999,0,0.5714646279993758
27,602,Equal,0.1,0.1,0.009999999999999997,1,0.5726170640009514
27,603,Increase,0.1,0.25,0.009999999999999997,1,0.4715660610017949
27,604,Control_null,0.0,0.1,0.1,0,0.7269046850015002
27,605,Decrease,0.25,0.1,0.00398107170553497,1,0.3539806299995689
27,606,Increase,0.1,0.25,0.007943282347242812,1,0.34573812700182316
27,607,Control_null,0.0,0.1,0.1,0,0.4449825440024142
27,608,Control,0.0,0.1,0.025118864315095798,1,0.3284993019988178
27,609,Control,0.0,0.25,0.003981071705534969,1,0.33152533099928405
27,610,Control,0.0,0.1,0.019952623149688792,1,0.647071800998674
27,611,Equal,0.1,0.1,0.007943282347242812,0,1.066128171998571
27,612,Equal,0.25,0.25,0.015848931924611127,1,0.6706628599968099
27,613,Decrease,0.25,0.1,0.0031622776601683772,1,0.6186361689979094
27,614,Decrease,0.25,0.1,0.002511886431509578,0,0.45528913000089233
27,615,Control,0.0,0.25,0.0031622776601683764,1,0.3287941380003758
27,616,Control,0.0,0.25,0.0025118864315095777,1,0.31614349499795935
27,617,Equal,0.25,0.25,0.012589254117941666,0,99
27,618,Equal,0.1,0.1,0.009999999999999997,0,99
27,619,Control,0.0,0.1,0.01584893192461113,1,0.17557187800048268
27,620,Equal,0.1,0.1,0.012589254117941668,1,0.30672768599833944
27,621,Control,0.0,0.25,0.0019952623149688776,1,0.413993133999611
27,622,Equal,0.1,0.1,0.009999999999999997,1,0.10503636800058302
27,623,Decrease_null,0.25,0.1,0.03981071705534971,0,99
27,624,Decrease,0.25,0.1,0.0031622776601683772,1,0.4075209580005321
27,625,Increase,0.1,0.25,0.006309573444801929,0,99
27,626,Increase,0.1,0.25,0.007943282347242812,0,99
27,627,Control,0.0,0.25,0.001584893192461112,1,0.6442985390021931
27,628,Equal,0.1,0.1,0.007943282347242812,0,99
27,629,Increase_null,0.1,0.25,0.031622776601683784,0,0.4323716390026675
27,630,Increase,0.1,0.25,0.009999999999999997,1,0.22573498799829395
27,631,Decrease,0.25,0.1,0.002511886431509578,1,0.219857560001401
27,632,Control,0.0,0.1,0.012589254117941668,1,0.4608850969998457
27,633,Control,0.0,0.1,0.009999999999999997,1,0.3039354310021736
27,634,Decrease_null,0.25,0.1,0.05011872336272721,0,0.3232072139981028
27,635,Increase,0.1,0.25,0.007943282347242812,1,0.34265938099997584
27,636,Decrease,0.25,0.1,0.001995262314968878,1,0.3936852539991378
27,637,Equal,0.1,0.1,0.009999999999999997,1,0.3491996400007338
27,638,Control,0.0,0.1,0.007943282347242812,1,0.19235864599977504
27,639,Increase,0.1,0.25,0.006309573444801929,1,0.10861576800016337
27,640,Equal_null,0.1,0.1,0.07943282347242814,0,0.3062210470015998
27,641,Equal,0.25,0.25,0.015848931924611127,1,0.3063590989986551
27,642,Control,0.0,0.25,0.001258925411794166,1,0.35782366700004786
27,643,Equal,0.25,0.25,0.012589254117941666,1,0.35806389400022454
27,644,Equal,0.25,0.25,0.009999999999999995,1,0.3301919760015153
27,645,Equal,0.25,0.25,0.00794328234724281,1,0.35444169900074485
27,646,Equal,0.25,0.25,0.0063095734448019285,1,0.3975797279999824
27,647,Control,0.0,0.1,0.006309573444801929,1,0.27247569899918744
27,648,Control,0.0,0.1,0.00501187233627272,1,0.267877258000226
27,649,Increase,0.1,0.25,0.00501187233627272,1,0.3441493240025011
27,650,Increase,0.1,0.25,0.00398107170553497,1,0.4274224860018876
27,651,Equal_null,0.1,0.1,0.09999999999999999,0,0.18346113600273384
27,652,Equal,0.25,0.25,0.005011872336272719,1,0.30699661700055003
27,653,Equal,0.1,0.1,0.007943282347242812,1,0.36051213099926827
27,654,Control,0.0,0.1,0.00398107170553497,1,0.168907928000408
27,655,Equal,0.25,0.25,0.00398107170553497,0,99
27,656,Increase,0.1,0.25,0.0031622776601683772,1,0.02033993599980022
27,657,Equal,0.25,0.25,0.00501187233627272,1,0.32831788399926154
27,658,Decrease,0.25,0.1,0.0015848931924611121,1,0.35291741599939996
27,659,Control,0.0,0.25,0.000999999999999999,0,0.300166111002909
27,660,Control,0.0,0.25,0.001258925411794166,1,0.2071993770005065
27,661,Equal,0.1,0.1,0.006309573444801929,1,0.05626834999929997
27,662,Equal,0.25,0.25,0.00398107170553497,1,0.10792751900225994
27,663,Control_null,0.0,0.25,0.1,0,0.3437222229986219
27,664,Increase,0.1,0.25,0.002511886431509578,1,0.6516037359979236
27,665,Equal,0.1,0.1,0.00501187233627272,1,0.45670157199856476
27,666,Increase,0.1,0.25,0.001995262314968878,1,0.37300352300007944
27,667,Increase,0.1,0.25,0.0015848931924611121,1,0.18942991899893968
27,668,Equal,0.1,0.1,0.00398107170553497,1,0.10333851299947128
27,669,Increase,0.1,0.25,0.001258925411794166,1,0.34501405300034094
27,670,Increase,0.1,0.25,0.000999999999999999,1,0.22016302300107782
27,671,Equal_null,0.1,0.1,0.1,0,0.13320077800017316
27,672,Equal,0.25,0.25,0.0031622776601683772,1,0.35245761899932404
27,673,Control_null,0.0,0.1,0.1,0,0.2913968360007857
27,674,Equal,0.1,0.1,0.0031622776601683772,1,0.3587658160031424
27,675,Equal,0.1,0.1,0.002511886431509578,1,0.1538708440020855
27,676,Increase,0.1,0.25,0.0007943282347242807,1,0.37316943800033187
27,677,Equal,0.25,0.25,0.002511886431509578,1,0.38579317499898025
27,678,Decrease,0.25,0.1,0.001258925411794166,1,0.4070565700021689
27,679,Decrease,0.25,0.1,0.000999999999999999,1,0.026784226000017952
27,680,Decrease,0.25,0.1,0.0007943282347242807,1,0.16279744500207016
27,681,Equal,0.25,0.25,0.001995262314968878,1,0.9578899920015829
27,682,Equal,0.25,0.25,0.0015848931924611121,1,0.5994701489980798
27,683,Decrease,0.25,0.1,0.0006309573444801926,1,0.4666666189987154
27,684,Increase,0.1,0.25,0.0006309573444801926,1,0.33164321400181507
27,685,Increase,0.1,0.25,0.0005011872336272717,1,0.3427542799981893
27,686,Equal,0.1,0.1,0.001995262314968878,1,0.3300743539984978
27,687,Control,0.0,0.1,0.0031622776601683772,1,0.1649948120029876
27,688,Equal,0.1,0.1,0.0015848931924611121,1,0.4083603190010763
27,689,Equal_null,0.1,0.1,0.1,1,0.44439591899936204
27,690,Increase,0.1,0.25,0.00039810717055349676,1,0.32084904599832953
27,691,Control,0.0,0.1,0.002511886431509578,0,0.5318686079990584
27,692,Equal,0.1,0.1,0.001258925411794166,1,0.3932549179990019
27,693,Equal,0.25,0.25,0.001258925411794166,1,0.39316161399983685
27,694,Equal,0.1,0.1,0.000999999999999999,0,99
27,695,Control,0.0,0.25,0.000999999999999999,1,0.38171227800194174
27,696,Equal,0.25,0.25,0.000999999999999999,1,0.40906873799758614
27,697,Equal,0.1,0.1,0.001258925411794166,1,0.3698380770001677
27,698,Decrease,0.25,0.1,0.0005011872336272717,1,0.33305399700111593
27,699,Decrease,0.25,0.1,0.00039810717055349676,1,0.48028386599980877
27,700,Increase,0.1,0.25,0.0003162277660168375,1,0.17290787800084217
27,701,Decrease,0.25,0.1,0.0003162277660168375,0,99
27,702,Equal,0.1,0.1,0.000999999999999999,0,99
27,703,Equal,0.1,0.1,0.001258925411794166,1,0.8314017119992059
27,704,Control,0.0,0.25,0.0007943282347242807,1,0.3634528410002531
27,705,Control,0.0,0.25,0.0006309573444801926,1,0.3675532019988168
27,706,Equal,0.1,0.1,0.000999999999999999,1,0.24747938300060923
27,707,Increase,0.1,0.25,0.0002511886431509577,1,0.22704038699885132
27,708,Equal,0.25,0.25,0.0007943282347242807,0,99
27,709,Increase_null,0.1,0.25,0.03981071705534971,0,0.3992170290002832
27,710,Control,0.0,0.25,0.0005011872336272717,1,0.4084129799994116
27,711,Decrease,0.25,0.1,0.00039810717055349676,1,0.3879009689990198
27,712,Decrease,0.25,0.1,0.0003162277660168375,1,0.3760171670001
27,713,Control,0.0,0.25,0.00039810717055349676,1,0.2348972949985182
27,714,Increase,0.1,0.25,0.00019952623149688769,1,0.5034207040007459
27,715,Control,0.0,0.1,0.0031622776601683772,0,0.45850793100180454
27,716,Increase,0.1,0.25,0.00015848931924611112,0,0.5258370199990168
27,717,Decrease,0.25,0.1,0.0002511886431509577,0,0.553791647998878
27,718,Equal,0.1,0.1,0.0007943282347242807,0,0.6763007929985179
27,719,Equal_null,0.1,0.1,0.07943282347242815,1,0.3631690459988022
27,720,Equal,0.25,0.25,0.000999999999999999,1,0.43965024299905053
27,721,Decrease,0.25,0.1,0.00031622776601683756,1,0.5709082980029052
27,722,Equal,0.25,0.25,0.0007943282347242807,0,0.4269792330014752
27,723,Control,0.0,0.1,0.00398107170553497,0,0.6220730070017453
27,724,Increase,0.1,0.25,0.00019952623149688769,0,0.6713716469967039
27,725,Increase,0.1,0.25,0.0002511886431509577,1,0.690635785998893
27,726,Decrease,0.25,0.1,0.0002511886431509577,1,0.5006618150000577
27,727,Decrease,0.25,0.1,0.00019952623149688769,0,0.4878307649996714
27,728,Increase_null,0.1,0.25,0.05011872336272721,1,0.5629676030002884
27,729,Equal,0.25,0.25,0.000999999999999999,1,0.7193762560018513
27,730,Control,0.0,0.1,0.00501187233627272,0,0.4523022659996059
27,731,Control,0.0,0.25,0.0003162277660168375,0,0.8395151820004685
27,732,Control,0.0,0.1,0.006309573444801929,0,0.5860796039996785
27,733,Equal,0.1,0.1,0.000999999999999999,1,0.7181904610006313
27,734,Equal,0.1,0.1,0.0007943282347242807,0,0.8654178470023908
27,735,Control,0.0,0.25,0.00039810717055349676,0,99
27,736,Equal,0.25,0.25,0.0007943282347242807,0,0.6767360239973641
27,737,Increase,0.1,0.25,0.00019952623149688769,1,0.5578259590001835
27,738,Control,0.0,0.1,0.007943282347242812,1,0.4810134039980767
27,739,Equal,0.1,0.1,0.000999999999999999,1,0.6112847809999948
27,740,Control_null,0.0,0.25,0.1,0,0.3903043680002156
27,741,Decrease,0.25,0.1,0.0002511886431509577,0,0.40248558500024956
27,742,Equal,0.25,0.25,0.000999999999999999,0,0.42883432900271146
27,743,Control,0.0,0.25,0.0005011872336272717,1,0.4737867540025036
27,744,Control_null,0.0,0.25,0.1,0,0.35768112000005203
27,745,Equal,0.1,0.1,0.0007943282347242807,0,0.44071091600198997
27,746,Increase,0.1,0.25,0.00015848931924611112,1,0.35554588500235695
27,747,Equal,0.1,0.1,0.000999999999999999,0,0.07079350799904205
27,748,Control,0.0,0.1,0.006309573444801929,1,0.3839085680010612
27,749,Equal_null,0.1,0.1,0.06309573444801932,0,0.627218711997557
27,750,Equal_null,0.1,0.1,0.07943282347242814,0,0.4510714160023781
27,751,Equal,0.25,0.25,0.001258925411794166,1,0.358184564000112
27,752,Equal,0.1,0.1,0.001258925411794166,1,0.44189357699724496
27,753,Increase,0.1,0.25,0.00012589254117941653,0,0.7086100440028531
27,754,Equal,0.1,0.1,0.000999999999999999,0,0.7040690350004297
27,755,Equal,0.1,0.1,0.001258925411794166,0,0.6432518090005033
27,756,Decrease,0.25,0.1,0.00031622776601683756,1,0.4569816630028072
27,757,Control,0.0,0.1,0.00501187233627272,1,0.5178183579992037
27,758,Equal,0.1,0.1,0.001584893192461112,1,0.49807053900076426
27,759,Equal,0.1,0.1,0.001258925411794166,1,0.3630509989998245
27,760,Equal,0.1,0.1,0.000999999999999999,1,0.31106372099748114
27,761,Equal,0.1,0.1,0.0007943282347242807,1,0.28732353300074465
27,762,Equal,0.25,0.25,0.000999999999999999,1,0.41037000399956014
27,763,Control,0.0,0.1,0.00398107170553497,0,99
27,764,Increase,0.1,0.25,0.00015848931924611112,1,0.3349348199990345
27,765,Increase,0.1,0.25,0.00012589254117941653,1,0.3940728410016163
27,766,Increase,0.1,0.25,9.999999999999984e-05,1,0.5413281180008198
27,767,Increase,0.1,0.25,7.943282347242802e-05,1,0.4245225409977138
27,768,Decrease,0.25,0.1,0.0002511886431509577,1,0.41858344499996747
27,769,Equal,0.25,0.25,0.0007943282347242807,1,0.2950119209999684
27,770,Decrease,0.25,0.1,0.00019952623149688769,0,99
27,771,Decrease,0.25,0.1,0.0002511886431509577,1,0.392420731997845
27,772,Increase,0.1,0.25,6.309573444801921e-05,1,0.3702245470012713
27,773,Increase,0.1,0.25,5.0118723362727136e-05,1,0.32555962200058275
27,774,Control,0.0,0.25,0.00039810717055349676,1,0.4458264880013303
27,775,Equal,0.25,0.25,0.0006309573444801926,1,0.43310174999714945
27,776,Control,0.0,0.25,0.0003162277660168375,1,0.4477645039987692
27,777,Decrease,0.25,0.1,0.00019952623149688769,1,0.4432487060003041
27,778,Decrease,0.25,0.1,0.00015848931924611112,0,0.502495895998436
27,779,Control,0.0,0.25,0.0002511886431509577,1,0.3296109519978927
27,780,Equal,0.25,0.25,0.0005011872336272717,0,0.4682181930002116
27,781,Decrease,0.25,0.1,0.00019952623149688769,1,0.42393834099857486
27,782,Control,0.0,0.25,0.00019952623149688769,1,0.8126846509985626
27,783,Increase,0.1,0.25,3.981071705534965e-05,1,0.5768133080018742
27,784,Control,0.0,0.25,0.00015848931924611112,0,0.32264606500029913
27,785,Increase,0.1,0.25,3.162277660168373e-05,1,0.4220024629976251
27,786,Decrease,0.25,0.1,0.00015848931924611112,1,0.4652675100005581
27,787,Control,0.0,0.25,0.00019952623149688769,1,0.8489505360012117
27,788,Equal,0.25,0.25,0.0006309573444801926,1,0.5173065990020405
27,789,Control,0.0,0.1,0.00501187233627272,0,0.36562630299886223
27,790,Decrease,0.25,0.1,0.00012589254117941653,1,0.5767342620019917
27,791,Control,0.0,0.25,0.00015848931924611112,1,0.8359497829987959
27,792,Control,0.0,0.25,0.00012589254117941653,1,0.5920307810010854
27,793,Control,0.0,0.25,9.999999999999984e-05,1,0.4674082849996921
27,794,Control,0.0,0.25,7.943282347242802e-05,1,0.3585718430003908
27,795,Control,0.0,0.25,6.309573444801921e-05,1,0.3312099959985062
27,796,Control,0.0,0.1,0.006309573444801929,1,0.08707657999912044
27,797,Equal,0.25,0.25,0.0005011872336272717,1,0.22510340900043957
27,798,Equal,0.25,0.25,0.00039810717055349676,1,0.42030664000049
27,799,Control,0.0,0.1,0.00501187233627272,1,0.3356541440007277
27,800,Equal,0.25,0.25,0.0003162277660168375,1,0.48754561099849525
27,801,Control,0.0,0.25,5.0118723362727136e-05,1,0.5788059310034441
27,802,Control,0.0,0.25,3.981071705534965e-05,1,0.2762241050004377
27,803,Decrease,0.25,0.1,9.999999999999984e-05,1,0.8550134709985286
27,804,Control,0.0,0.25,3.162277660168373e-05,1,0.5632955809996929
27,805,Control,0.0,0.25,2.5118864315095747e-05,0,0.4865349249994324
27,806,Decrease,0.25,0.1,7.943282347242802e-05,1,0.5619256959980703
27,807,Equal,0.25,0.25,0.0002511886431509577,0,0.4527308120013913
27,808,Decrease,0.25,0.1,6.309573444801921e-05,0,0.47236954199979664
27,809,Control,0.0,0.1,0.00398107170553497,1,0.3018101650013705
27,810,Decrease,0.25,0.1,7.943282347242802e-05,1,0.3735544250012026
27,811,Control,0.0,0.25,3.162277660168373e-05,0,0.457513540997752
27,812,Decrease,0.25,0.1,6.309573444801921e-05,1,0.5488438110005518
27,813,Control,0.0,0.25,3.981071705534965e-05,1,0.39752547399984905
27,814,Control,0.0,0.1,0.0031622776601683772,0,99
27,815,Control,0.0,0.25,3.162277660168373e-05,1,0.36903304799852776
27,816,Equal,0.25,0.25,0.00031622776601683756,1,0.5567366469986155
27,817,Decrease,0.25,0.1,5.0118723362727136e-05,1,0.424801777000539
27,818,Equal,0.25,0.25,0.0002511886431509577,1,0.6905236769998737
27,819,Control,0.0,0.1,0.00398107170553497,1,0.4619570860013482
27,820,Control,0.0,0.25,2.5118864315095747e-05,1,0.6172694839988253
27,821,Decrease,0.25,0.1,3.981071705534965e-05,1,0.6366471889996319
27,822,Control,0.0,0.1,0.0031622776601683772,1,0.7447618040023372
27,823,Control,0.0,0.25,1.9952623149688752e-05,1,0.602987171998393
27,824,Control,0.0,0.25,1.58489319246111e-05,1,0.5020416950028448
27,825,Equal,0.25,0.25,0.00019952623149688769,1,0.7262746829983371
27,826,Control,0.0,0.25,1.2589254117941644e-05,0,0.426635706997331
27,827,Decrease,0.25,0.1,3.162277660168373e-05,0,0.4294944859975658
27,828,Decrease,0.25,0.1,3.981071705534965e-05,0,0.5588015009998344
27,829,Control,0.0,0.25,1.58489319246111e-05,1,0.5939859579993936
27,830,Decrease,0.25,0.1,5.0118723362727136e-05,0,0.4130650679981045
27,831,Decrease,0.25,0.1,6.309573444801921e-05,0,0.37767539599735755
27,832,Control,0.0,0.25,1.2589254117941644e-05,0,0.4366120740014594
27,833,Decrease,0.25,0.1,7.943282347242802e-05,1,0.3896659070014721
27,834,Decrease,0.25,0.1,6.309573444801921e-05,0,0.5211966890019539
27,835,Decrease,0.25,0.1,7.943282347242802e-05,1,0.6692776630006847
27,836,Control,0.0,0.25,1.58489319246111e-05,1,0.7984217090015591
27,837,Control,0.0,0.25,1.2589254117941644e-05,0,99
27,838,Control,0.0,0.25,1.58489319246111e-05,1,0.6188096570003836
27,839,Control,0.0,0.25,1.2589254117941644e-05,1,0.4220075800003542
