Participant_Number,Trial_Number,Condition,FC_distal,FC_proximal,Target_Contrast,Correct_Response,Reaction_Time
6,0,Decrease,0.25,0.1,0.1,1,0.7016736000005039
6,1,Equal,0.1,0.1,0.1,1,0.47489427300024545
6,2,Control,0.0,0.25,0.1,1,0.520626565999919
6,3,Decrease,0.25,0.1,0.07943282347242815,1,0.631801504001487
6,4,Increase,0.1,0.25,0.1,1,0.5462947140003962
6,5,Control,0.0,0.25,0.07943282347242815,1,0.6644393160004256
6,6,Decrease,0.25,0.1,0.06309573444801932,1,0.6776950399998896
6,7,Equal_null,0.25,0.25,0.1,1,0.679849103999004
6,8,Equal_null,0.25,0.25,0.07943282347242815,1,0.6209868519999873
6,9,Control,0.0,0.25,0.06309573444801932,1,0.5041184759993484
6,10,Increase,0.1,0.25,0.07943282347242815,1,0.7894866469996487
6,11,Control_null,0.0,0.25,0.1,1,0.658409773999665
6,12,Increase,0.1,0.25,0.06309573444801932,1,0.831770533000963
6,13,Increase,0.1,0.25,0.05011872336272722,1,0.7650420249992749
6,14,Equal_null,0.25,0.25,0.06309573444801932,1,0.6743709830006992
6,15,Equal,0.25,0.25,0.1,1,0.7690287160003209
6,16,Increase,0.1,0.25,0.03981071705534971,1,0.9907205760009674
6,17,Equal,0.25,0.25,0.07943282347242815,1,0.7091272340003343
6,18,Increase_null,0.1,0.25,0.1,1,0.6639478110009804
6,19,Control,0.0,0.25,0.05011872336272722,1,0.9411534400005621
6,20,Decrease,0.25,0.1,0.05011872336272722,1,0.904349562999414
6,21,Decrease,0.25,0.1,0.03981071705534971,1,0.8533437000005506
6,22,Increase_null,0.1,0.25,0.07943282347242815,1,0.6156655009999668
6,23,Equal,0.1,0.1,0.07943282347242815,1,0.6206837250010722
6,24,Control,0.0,0.25,0.03981071705534971,1,0.6669995920001384
6,25,Equal,0.1,0.1,0.06309573444801932,1,0.6082101070005592
6,26,Increase,0.1,0.25,0.031622776601683784,1,0.8612396089993126
6,27,Increase,0.1,0.25,0.02511886431509579,1,0.7865927519997058
6,28,Control,0.0,0.25,0.031622776601683784,1,0.7757402989991533
6,29,Increase,0.1,0.25,0.01995262314968879,1,0.6775193600005878
6,30,Control,0.0,0.1,0.1,1,0.6207258729991736
6,31,Control,0.0,0.25,0.02511886431509579,1,0.6234310870004265
6,32,Control,0.0,0.1,0.07943282347242815,1,0.6042657959987991
6,33,Decrease,0.25,0.1,0.031622776601683784,1,0.6546372419998079
6,34,Control,0.0,0.1,0.06309573444801932,1,0.635799012001371
6,35,Control,0.0,0.1,0.05011872336272722,1,0.5746803760011971
6,36,Control,0.0,0.1,0.03981071705534971,1,0.540263483999297
6,37,Equal,0.25,0.25,0.06309573444801932,1,0.52145253100025
6,38,Equal,0.1,0.1,0.05011872336272722,1,0.5582610020010179
6,39,Increase,0.1,0.25,0.015848931924611127,1,0.7876196150009491
6,40,Equal,0.1,0.1,0.03981071705534971,1,0.7448525929994503
6,41,Decrease,0.25,0.1,0.02511886431509579,1,0.7510154179999518
6,42,Equal,0.1,0.1,0.031622776601683784,1,0.5880107319990202
6,43,Equal_null,0.1,0.1,0.1,1,0.6666427279997151
6,44,Control,0.0,0.25,0.01995262314968879,1,0.6785842520002916
6,45,Equal,0.25,0.25,0.05011872336272722,1,0.5720213350014092
6,46,Increase,0.1,0.25,0.012589254117941666,1,0.758144732000801
6,47,Control,0.0,0.1,0.031622776601683784,1,0.6512100290001399
6,48,Decrease,0.25,0.1,0.01995262314968879,1,0.6959763760005444
6,49,Increase,0.1,0.25,0.009999999999999995,0,0.6275451679994148
6,50,Equal,0.1,0.1,0.02511886431509579,1,0.7936769230000209
6,51,Equal,0.1,0.1,0.01995262314968879,1,0.7109019039999112
6,52,Decrease_null,0.25,0.1,0.1,1,1.0840069210007641
6,53,Equal,0.25,0.25,0.03981071705534971,1,0.8412536239993642
6,54,Equal,0.25,0.25,0.031622776601683784,1,1.0784969849992194
6,55,Equal,0.25,0.25,0.02511886431509579,1,0.43563956299840356
6,56,Equal,0.25,0.25,0.01995262314968879,1,0.5216179290000582
6,57,Control,0.0,0.1,0.02511886431509579,1,0.5479990980002185
6,58,Equal,0.1,0.1,0.015848931924611127,1,0.51427370500096
6,59,Control,0.0,0.25,0.015848931924611127,0,0.8555110050001531
6,60,Increase,0.1,0.25,0.012589254117941666,1,0.6254422269994393
6,61,Control,0.0,0.1,0.01995262314968879,1,1.0068112530007056
6,62,Decrease,0.25,0.1,0.015848931924611127,1,0.5938295859996288
6,63,Control,0.0,0.25,0.01995262314968879,1,0.5750716950005881
6,64,Equal,0.25,0.25,0.015848931924611127,1,0.6202091110008041
6,65,Equal,0.25,0.25,0.012589254117941666,1,0.578471945000274
6,66,Control,0.0,0.25,0.015848931924611127,1,0.5676476879998518
6,67,Increase,0.1,0.25,0.009999999999999995,0,0.7719696559997828
6,68,Equal,0.1,0.1,0.012589254117941666,1,0.7302310470004159
6,69,Decrease,0.25,0.1,0.012589254117941666,1,1.096021044999361
6,70,Increase,0.1,0.25,0.012589254117941666,1,0.710303206999015
6,71,Control,0.0,0.1,0.015848931924611127,0,0.7615224910005054
6,72,Decrease,0.25,0.1,0.009999999999999995,0,0.6467465519999678
6,73,Control,0.0,0.25,0.012589254117941666,1,0.8410197790017264
6,74,Decrease,0.25,0.1,0.012589254117941666,0,0.7341475860011997
6,75,Control,0.0,0.1,0.01995262314968879,1,0.7223166029998538
6,76,Decrease,0.25,0.1,0.015848931924611127,1,0.7515225080005621
6,77,Increase,0.1,0.25,0.009999999999999995,0,0.7011215759994229
6,78,Control,0.0,0.1,0.015848931924611127,1,0.8098604939987126
6,79,Control,0.0,0.25,0.009999999999999995,1,0.8309026280003309
6,80,Equal,0.1,0.1,0.009999999999999995,0,0.7331537150002987
6,81,Decrease,0.25,0.1,0.012589254117941666,0,0.7544216749993211
6,82,Equal,0.25,0.25,0.009999999999999995,1,0.6546104530007142
6,83,Control,0.0,0.1,0.012589254117941666,0,0.7558010180000565
6,84,Control,0.0,0.1,0.015848931924611127,1,0.6216939860005368
6,85,Equal,0.25,0.25,0.00794328234724281,0,0.5469980630005011
6,86,Increase,0.1,0.25,0.012589254117941666,0,0.48550093499943614
6,87,Decrease,0.25,0.1,0.015848931924611127,0,0.5941993800006458
6,88,Increase,0.1,0.25,0.015848931924611127,1,0.574385601999893
6,89,Equal,0.1,0.1,0.012589254117941666,1,0.6587928110002395
6,90,Decrease,0.25,0.1,0.01995262314968879,0,0.6159103099998902
6,91,Decrease,0.25,0.1,0.025118864315095794,1,0.6542916510006762
6,92,Equal,0.1,0.1,0.009999999999999995,0,0.6594736770002783
6,93,Decrease,0.25,0.1,0.01995262314968879,1,0.7924526280003192
6,94,Equal,0.1,0.1,0.012589254117941666,1,0.654298915000254
6,95,Increase,0.1,0.25,0.012589254117941666,0,0.5630427529995359
6,96,Control,0.0,0.25,0.00794328234724281,1,0.944985373000236
6,97,Equal,0.1,0.1,0.009999999999999995,0,0.7955245720004314
6,98,Equal,0.25,0.25,0.009999999999999995,0,0.70453878599983
6,99,Increase_null,0.1,0.25,0.06309573444801932,1,0.5945630109999911
6,100,Equal,0.25,0.25,0.012589254117941666,0,0.5527302139998937
6,101,Decrease,0.25,0.1,0.015848931924611127,1,1.0700278069998603
6,102,Control,0.0,0.1,0.012589254117941666,1,1.1781657339997764
6,103,Equal,0.25,0.25,0.015848931924611127,0,0.7353585769997153
6,104,Equal,0.25,0.25,0.01995262314968879,0,0.5807998119998956
6,105,Decrease,0.25,0.1,0.012589254117941666,0,0.761453140001322
6,106,Increase,0.1,0.25,0.015848931924611127,0,0.7446034889999282
6,107,Equal,0.1,0.1,0.012589254117941666,0,0.5677590129998862
6,108,Control,0.0,0.25,0.0063095734448019285,0,0.6432892470002116
6,109,Decrease,0.25,0.1,0.015848931924611127,1,0.6013774309994915
6,110,Decrease,0.25,0.1,0.012589254117941666,0,0.6995990049999818
6,111,Equal,0.25,0.25,0.025118864315095794,1,0.6248343099996418
6,112,Control,0.0,0.25,0.00794328234724281,0,0.7097740190001787
6,113,Control,0.0,0.1,0.009999999999999995,1,0.6172662570006651
6,114,Increase,0.1,0.25,0.01995262314968879,1,0.6863627530001395
6,115,Decrease,0.25,0.1,0.015848931924611127,1,0.7384372540000186
6,116,Equal,0.1,0.1,0.015848931924611127,1,0.6557234619995143
6,117,Control,0.0,0.1,0.00794328234724281,0,0.7648219660004543
6,118,Equal,0.25,0.25,0.01995262314968879,1,0.6581172549995244
6,119,Decrease,0.25,0.1,0.012589254117941666,0,0.4724808659993869
6,120,Equal_null,0.25,0.25,0.05011872336272722,1,0.9477226399994834
6,121,Equal,0.1,0.1,0.012589254117941666,0,0.6728378499992687
6,122,Equal,0.1,0.1,0.015848931924611127,0,0.7495699770006468
6,123,Equal,0.1,0.1,0.01995262314968879,1,0.4270442799988814
6,124,Control,0.0,0.25,0.009999999999999995,0,0.8642093620001106
6,125,Decrease,0.25,0.1,0.015848931924611127,1,0.6463921880003909
6,126,Increase,0.1,0.25,0.015848931924611127,1,0.9402192409997951
6,127,Control,0.0,0.1,0.009999999999999995,0,1.1700914909997664
6,128,Decrease,0.25,0.1,0.012589254117941666,1,0.5650423999995837
6,129,Control,0.0,0.25,0.012589254117941666,1,0.4752855410006305
6,130,Increase,0.1,0.25,0.012589254117941666,0,0.5336609499991027
6,131,Equal,0.25,0.25,0.015848931924611127,1,0.6026765609985887
6,132,Control,0.0,0.1,0.012589254117941666,1,0.6207245950008655
6,133,Control,0.0,0.1,0.009999999999999995,1,0.4430319999992207
6,134,Decrease_null,0.25,0.1,0.07943282347242815,1,0.728280666999126
6,135,Control,0.0,0.25,0.009999999999999995,0,0.74040062000131
6,136,Equal,0.1,0.1,0.015848931924611127,1,0.553538797001238
6,137,Decrease,0.25,0.1,0.009999999999999995,1,0.4316685909998341
6,138,Equal,0.25,0.25,0.012589254117941666,0,99
6,139,Equal,0.1,0.1,0.012589254117941666,0,0.9710089979998884
6,140,Control,0.0,0.1,0.00794328234724281,1,0.7690699659997335
6,141,Control,0.0,0.1,0.0063095734448019285,0,0.764479023999229
6,142,Equal,0.1,0.1,0.015848931924611127,1,0.6257716399995843
6,143,Control,0.0,0.25,0.012589254117941666,0,0.6519063610012381
6,144,Decrease,0.25,0.1,0.00794328234724281,0,0.6330526519996056
6,145,Decrease,0.25,0.1,0.009999999999999995,1,0.6761944480003876
6,146,Control,0.0,0.1,0.00794328234724281,0,0.585495819001153
6,147,Decrease,0.25,0.1,0.00794328234724281,0,0.4855933129983896
6,148,Increase,0.1,0.25,0.015848931924611127,1,0.5957406509987777
6,149,Equal,0.1,0.1,0.012589254117941666,1,0.8247832500001095
6,150,Increase,0.1,0.25,0.012589254117941666,0,0.9983189399990806
6,151,Control,0.0,0.1,0.009999999999999995,0,0.48329927799932193
6,152,Decrease,0.25,0.1,0.009999999999999995,1,0.6734305850004603
6,153,Equal_null,0.25,0.25,0.03981071705534971,1,0.40773331099990173
6,154,Control_null,0.0,0.25,0.07943282347242815,1,0.6761698049995175
6,155,Increase,0.1,0.25,0.015848931924611127,1,0.5131098499987274
6,156,Control,0.0,0.1,0.012589254117941666,1,0.7822048329999234
6,157,Control_null,0.0,0.25,0.06309573444801932,1,0.8093002549994708
6,158,Control,0.0,0.25,0.015848931924611127,0,99
6,159,Increase,0.1,0.25,0.012589254117941666,0,99
6,160,Decrease,0.25,0.1,0.00794328234724281,0,0.6871592549996421
6,161,Equal,0.25,0.25,0.015848931924611127,0,0.5963338359997579
6,162,Decrease,0.25,0.1,0.009999999999999995,0,0.4811898530006147
6,163,Decrease,0.25,0.1,0.012589254117941666,1,0.6784649490000447
6,164,Control,0.0,0.25,0.01995262314968879,1,0.8436320049986534
6,165,Control,0.0,0.25,0.015848931924611127,1,0.6413659099998767
6,166,Increase,0.1,0.25,0.015848931924611127,1,0.5992424779997236
6,167,Increase,0.1,0.25,0.012589254117941666,0,0.8529508880001231
6,168,Equal,0.25,0.25,0.01995262314968879,1,0.6164068479993148
6,169,Decrease_null,0.25,0.1,0.06309573444801932,1,0.6376533480015496
6,170,Control_null,0.0,0.25,0.05011872336272722,0,0.5038613739998254
6,171,Control,0.0,0.25,0.012589254117941666,0,0.5486768230002781
6,172,Increase,0.1,0.25,0.015848931924611127,1,0.7611003150013858
6,173,Increase,0.1,0.25,0.012589254117941666,1,1.2783603419993597
6,174,Equal,0.25,0.25,0.015848931924611127,1,0.41964325699882465
6,175,Equal,0.1,0.1,0.009999999999999995,1,0.5526255310014676
6,176,Control,0.0,0.25,0.015848931924611127,1,0.49362387400105945
6,177,Decrease,0.25,0.1,0.009999999999999995,1,0.5231380529985472
6,178,Control,0.0,0.25,0.012589254117941666,1,0.5439332170008129
6,179,Increase,0.1,0.25,0.009999999999999995,1,1.1332336760006
6,180,Equal,0.25,0.25,0.012589254117941666,1,0.5165893630000937
6,181,Decrease,0.25,0.1,0.00794328234724281,0,0.43081429499943624
6,182,Control,0.0,0.1,0.009999999999999995,0,0.675973958999748
6,183,Increase,0.1,0.25,0.00794328234724281,0,0.49425260800126125
6,184,Control,0.0,0.25,0.009999999999999995,0,0.6433970319994842
6,185,Decrease_null,0.25,0.1,0.05011872336272722,1,1.149459954998747
6,186,Decrease,0.25,0.1,0.009999999999999995,1,1.0276726049996796
6,187,Increase,0.1,0.25,0.009999999999999995,0,0.8809790010000143
6,188,Equal,0.25,0.25,0.009999999999999995,0,0.702358169000945
6,189,Control,0.0,0.1,0.012589254117941666,1,0.7552580690007744
6,190,Decrease,0.25,0.1,0.00794328234724281,1,0.7525907560011547
6,191,Increase,0.1,0.25,0.012589254117941666,0,0.8374633290004567
6,192,Equal,0.1,0.1,0.00794328234724281,1,0.6988882719997491
6,193,Equal,0.25,0.25,0.012589254117941666,0,0.5054967339983705
6,194,Equal,0.25,0.25,0.015848931924611127,1,0.6991245059998619
6,195,Control,0.0,0.25,0.012589254117941666,0,0.6082461009991675
6,196,Increase,0.1,0.25,0.015848931924611127,0,0.738470555999811
6,197,Control,0.0,0.25,0.015848931924611127,1,0.640779762999955
6,198,Control,0.0,0.1,0.009999999999999995,0,0.7959480540012009
6,199,Equal,0.25,0.25,0.012589254117941666,1,1.120893261000674
6,200,Equal_null,0.25,0.25,0.031622776601683784,1,0.870328585999232
6,201,Equal,0.25,0.25,0.009999999999999995,0,0.5712763459996495
6,202,Increase_null,0.1,0.25,0.05011872336272722,1,0.7376699529995676
6,203,Equal,0.1,0.1,0.0063095734448019285,0,0.6076387579996663
6,204,Decrease_null,0.25,0.1,0.03981071705534971,1,0.7736151629997039
6,205,Control,0.0,0.1,0.012589254117941666,0,0.47413362600127584
6,206,Equal,0.25,0.25,0.012589254117941666,1,0.5837093730006018
6,207,Decrease_null,0.25,0.1,0.031622776601683784,0,0.6021992569985741
6,208,Equal,0.25,0.25,0.009999999999999995,0,0.4956559929996729
6,209,Control,0.0,0.1,0.015848931924611127,1,0.7498384440004884
6,210,Decrease,0.25,0.1,0.0063095734448019285,0,0.5602089890016941
6,211,Equal,0.25,0.25,0.012589254117941666,0,0.6927017859998159
6,212,Control,0.0,0.1,0.012589254117941666,0,0.6175077010011591
6,213,Increase,0.1,0.25,0.01995262314968879,1,0.6145230600013747
6,214,Equal,0.25,0.25,0.015848931924611127,1,0.7877359909998631
6,215,Control,0.0,0.1,0.015848931924611127,1,0.9127971369998704
6,216,Control,0.0,0.25,0.012589254117941666,0,0.6231809710006928
6,217,Equal,0.25,0.25,0.012589254117941666,0,0.7891956839994236
6,218,Control,0.0,0.1,0.012589254117941666,0,1.0981961599991337
6,219,Decrease,0.25,0.1,0.00794328234724281,1,0.7513060030014458
6,220,Equal,0.25,0.25,0.015848931924611127,1,1.1741829220009095
6,221,Equal,0.25,0.25,0.012589254117941666,0,0.5678660579997086
6,222,Equal,0.1,0.1,0.00794328234724281,0,0.4223770329990657
6,223,Equal,0.25,0.25,0.015848931924611127,0,0.6005514629996469
6,224,Control,0.0,0.25,0.015848931924611127,0,0.4137168719989859
6,225,Equal,0.25,0.25,0.01995262314968879,0,0.4738889410000411
6,226,Decrease_null,0.25,0.1,0.03981071705534971,1,0.8472116840002855
6,227,Control,0.0,0.25,0.01995262314968879,0,0.6763142609997885
6,228,Equal,0.1,0.1,0.009999999999999995,0,0.4904247310005303
6,229,Control,0.0,0.25,0.025118864315095794,1,0.6732355010008177
6,230,Control,0.0,0.1,0.015848931924611127,0,0.6847835850003321
6,231,Control,0.0,0.1,0.01995262314968879,0,0.5474586410000484
6,232,Control,0.0,0.1,0.025118864315095794,1,0.5362081929997657
6,233,Equal,0.25,0.25,0.025118864315095794,0,0.4933164760004729
6,234,Decrease,0.25,0.1,0.0063095734448019285,0,0.4152072640008555
6,235,Control,0.0,0.25,0.01995262314968879,0,0.6996658949992707
6,236,Control,0.0,0.25,0.025118864315095794,1,0.5415877529994759
6,237,Control,0.0,0.1,0.01995262314968879,0,0.6520163820005109
6,238,Equal,0.25,0.25,0.031622776601683784,1,0.4883556849999877
6,239,Equal_null,0.25,0.25,0.02511886431509579,1,0.5244786700004624
6,240,Equal,0.1,0.1,0.012589254117941666,1,0.9458065210001223
6,241,Equal,0.25,0.25,0.02511886431509579,1,0.5440840640003444
6,242,Decrease,0.25,0.1,0.00794328234724281,1,0.6422547840011248
6,243,Equal,0.1,0.1,0.009999999999999995,0,0.4542660330007493
6,244,Increase,0.1,0.25,0.015848931924611127,1,0.6433839500004979
6,245,Control,0.0,0.1,0.025118864315095794,1,0.6504236050004693
6,246,Control,0.0,0.25,0.01995262314968879,0,0.4870768830005545
6,247,Increase,0.1,0.25,0.012589254117941666,0,0.46728210900073464
6,248,Control,0.0,0.1,0.01995262314968879,1,0.9136890980007593
6,249,Equal,0.1,0.1,0.012589254117941666,0,0.6080595509993145
6,250,Increase,0.1,0.25,0.015848931924611127,1,0.566802083998482
6,251,Increase,0.1,0.25,0.012589254117941666,0,0.6576014250003936
6,252,Equal,0.25,0.25,0.01995262314968879,1,1.0468850959987321
6,253,Equal,0.1,0.1,0.015848931924611127,1,0.5532401149994257
6,254,Control,0.0,0.1,0.015848931924611127,0,0.7181826739997632
6,255,Increase,0.1,0.25,0.015848931924611127,1,0.7616459000000759
6,256,Equal,0.1,0.1,0.012589254117941666,0,0.6786697499992442
6,257,Increase,0.1,0.25,0.012589254117941666,1,0.46800101000008
6,258,Decrease,0.25,0.1,0.0063095734448019285,0,0.4492874719999236
6,259,Equal,0.1,0.1,0.015848931924611127,1,0.5022828950004623
6,260,Equal,0.25,0.25,0.015848931924611127,1,0.6515973850000591
6,261,Equal,0.1,0.1,0.012589254117941666,0,0.4495686469999782
6,262,Control,0.0,0.1,0.01995262314968879,1,0.8867228529998101
6,263,Control,0.0,0.1,0.015848931924611127,1,0.6137468529996113
6,264,Control,0.0,0.25,0.025118864315095794,1,0.7441813879995607
6,265,Increase,0.1,0.25,0.009999999999999995,0,0.7502386119995208
6,266,Control,0.0,0.1,0.012589254117941666,0,0.8567355979994318
6,267,Control,0.0,0.25,0.01995262314968879,1,0.5979813070007367
6,268,Control,0.0,0.1,0.015848931924611127,1,0.6890431710016856
6,269,Control,0.0,0.1,0.012589254117941666,0,0.5982355579999421
6,270,Control,0.0,0.1,0.015848931924611127,1,0.5472820550003235
6,271,Increase,0.1,0.25,0.012589254117941666,0,0.7046130710004945
6,272,Control,0.0,0.1,0.012589254117941666,1,0.98936960500032
6,273,Increase,0.1,0.25,0.015848931924611127,1,0.7869974650002405
6,274,Decrease,0.25,0.1,0.00794328234724281,1,0.7197310439987632
6,275,Decrease,0.25,0.1,0.0063095734448019285,0,0.5586887659992499
6,276,Control,0.0,0.1,0.009999999999999995,0,0.5494417099998827
6,277,Equal,0.1,0.1,0.015848931924611127,1,0.5365367619997414
6,278,Equal,0.1,0.1,0.012589254117941666,0,0.7099216490005347
6,279,Equal,0.25,0.25,0.012589254117941666,1,0.8157279910010402
6,280,Control,0.0,0.25,0.015848931924611127,1,0.6209791480014246
6,281,Decrease,0.25,0.1,0.00794328234724281,0,0.6987208030004695
6,282,Increase_null,0.1,0.25,0.03981071705534971,1,0.5894433089997619
6,283,Equal,0.1,0.1,0.015848931924611127,1,0.482617757999833
6,284,Equal_null,0.1,0.1,0.07943282347242815,1,0.8319092430010642
6,285,Equal,0.25,0.25,0.009999999999999995,0,0.4443575610002881
6,286,Equal,0.25,0.25,0.012589254117941666,0,0.49020726599883346
6,287,Control,0.0,0.1,0.012589254117941666,0,0.5515031129998533
6,288,Equal,0.1,0.1,0.012589254117941666,0,0.6285114769998472
6,289,Increase,0.1,0.25,0.012589254117941666,0,0.5719815960001142
6,290,Control,0.0,0.25,0.012589254117941666,1,0.5545592319995194
6,291,Decrease,0.25,0.1,0.009999999999999995,0,0.5083436410004651
6,292,Increase,0.1,0.25,0.015848931924611127,0,0.4425586019988259
6,293,Decrease,0.25,0.1,0.012589254117941666,1,0.5166504829994665
6,294,Equal,0.25,0.25,0.015848931924611127,1,0.5135689850012568
6,295,Control,0.0,0.25,0.009999999999999995,0,0.4447923179995996
6,296,Equal,0.25,0.25,0.012589254117941666,0,0.4262224080011947
6,297,Equal,0.1,0.1,0.015848931924611127,0,0.608264902000883
6,298,Increase,0.1,0.25,0.01995262314968879,0,0.4374338589987019
6,299,Equal_null,0.1,0.1,0.06309573444801932,1,0.4105125429996406
6,300,Control_null,0.0,0.25,0.06309573444801932,1,0.607814626999243
6,301,Decrease,0.25,0.1,0.009999999999999995,1,0.667922044000079
6,302,Equal,0.25,0.25,0.015848931924611127,0,0.8752087379998557
6,303,Increase,0.1,0.25,0.025118864315095794,1,0.5549762509999709
6,304,Equal,0.1,0.1,0.01995262314968879,1,0.8286575680012902
6,305,Equal,0.1,0.1,0.015848931924611127,1,1.0176927209995483
6,306,Control,0.0,0.25,0.012589254117941666,1,0.8358949270004814
6,307,Control,0.0,0.25,0.009999999999999995,0,0.6340305649991933
6,308,Control,0.0,0.25,0.012589254117941666,0,0.45334225199985667
6,309,Decrease,0.25,0.1,0.00794328234724281,0,0.4264187349999702
6,310,Equal,0.1,0.1,0.012589254117941666,1,0.6476186319996486
6,311,Decrease,0.25,0.1,0.009999999999999995,1,0.5406353159996797
6,312,Equal,0.25,0.25,0.01995262314968879,0,0.4270536929998343
6,313,Increase,0.1,0.25,0.01995262314968879,0,0.40828833500017936
6,314,Increase,0.1,0.25,0.025118864315095794,1,0.6694783710008778
6,315,Control,0.0,0.25,0.015848931924611127,0,0.4025391340001079
6,316,Control_null,0.0,0.25,0.05011872336272722,1,0.6166164130008838
6,317,Increase,0.1,0.25,0.01995262314968879,1,1.0030699189992447
6,318,Control,0.0,0.1,0.015848931924611127,0,0.47989193300054467
6,319,Control,0.0,0.25,0.01995262314968879,0,0.6913463510009024
6,320,Equal,0.1,0.1,0.009999999999999995,0,0.6326773309992859
6,321,Control,0.0,0.25,0.025118864315095794,1,0.5954970190014137
6,322,Increase,0.1,0.25,0.015848931924611127,1,0.9207878990000609
6,323,Control,0.0,0.1,0.01995262314968879,1,0.6381382229992596
6,324,Equal,0.25,0.25,0.025118864315095794,1,0.7632805489993189
6,325,Control,0.0,0.25,0.01995262314968879,1,0.6483266579998599
6,326,Equal,0.1,0.1,0.012589254117941666,0,0.5976897740001732
6,327,Control,0.0,0.1,0.015848931924611127,1,0.7234952390008402
6,328,Equal,0.25,0.25,0.01995262314968879,1,0.5443583360010962
6,329,Equal,0.25,0.25,0.015848931924611127,1,0.5181364420004684
6,330,Equal,0.1,0.1,0.015848931924611127,0,0.5763309200010553
6,331,Equal_null,0.25,0.25,0.01995262314968879,1,0.8225537389989768
6,332,Increase,0.1,0.25,0.012589254117941666,0,0.5208330059995205
6,333,Control,0.0,0.25,0.015848931924611127,0,0.4048109220002516
6,334,Decrease,0.25,0.1,0.00794328234724281,0,0.5539963379997062
6,335,Increase,0.1,0.25,0.015848931924611127,0,0.4784230559998832
6,336,Decrease_null,0.25,0.1,0.031622776601683784,1,0.41944707600123365
6,337,Equal,0.25,0.25,0.012589254117941666,0,0.36065220100135775
6,338,Equal,0.1,0.1,0.01995262314968879,1,0.7096703279985377
6,339,Equal,0.1,0.1,0.015848931924611127,0,0.47755626700018183
6,340,Decrease,0.25,0.1,0.009999999999999995,0,0.3861593509991508
6,341,Equal,0.1,0.1,0.01995262314968879,0,0.3980392920002487
6,342,Decrease,0.25,0.1,0.012589254117941666,0,0.3812226179998106
6,343,Control,0.0,0.25,0.01995262314968879,0,0.7998555889989802
6,344,Equal,0.25,0.25,0.015848931924611127,1,0.6369902679998631
6,345,Control,0.0,0.1,0.012589254117941666,0,0.5141617949993815
6,346,Control,0.0,0.25,0.025118864315095794,1,0.7002975269988383
6,347,Increase,0.1,0.25,0.01995262314968879,1,0.9935696459997416
6,348,Control_null,0.0,0.1,0.1,1,0.6775249379988963
6,349,Increase,0.1,0.25,0.015848931924611127,0,0.5388447059995087
6,350,Equal,0.25,0.25,0.012589254117941666,0,0.46402988999943773
6,351,Control,0.0,0.1,0.015848931924611127,1,0.5418820459999552
6,352,Control,0.0,0.1,0.012589254117941666,0,0.6128771899984713
6,353,Increase,0.1,0.25,0.01995262314968879,0,0.5055711579989293
6,354,Control,0.0,0.1,0.015848931924611127,1,0.831626259998302
6,355,Equal,0.1,0.1,0.025118864315095794,1,0.5078805319990352
6,356,Control,0.0,0.1,0.012589254117941666,0,0.7932019939999009
6,357,Control,0.0,0.1,0.015848931924611127,1,0.5390597940004227
6,358,Control,0.0,0.1,0.012589254117941666,0,0.41627376100041147
6,359,Increase,0.1,0.25,0.025118864315095794,0,0.6745160150003358
6,360,Control,0.0,0.1,0.015848931924611127,0,0.7540387690005446
6,361,Control,0.0,0.1,0.01995262314968879,1,0.4840241599995352
6,362,Control_null,0.0,0.1,0.07943282347242815,0,0.4978546050006116
6,363,Increase,0.1,0.25,0.031622776601683784,1,0.6943736949997401
6,364,Equal,0.25,0.25,0.015848931924611127,0,0.5316928880001797
6,365,Decrease_null,0.25,0.1,0.02511886431509579,1,0.8005237540000962
6,366,Equal,0.25,0.25,0.01995262314968879,1,0.5978464740001073
6,367,Control_null,0.0,0.1,0.1,1,0.5151726780004537
6,368,Increase,0.1,0.25,0.02511886431509579,1,0.5383836220007652
6,369,Control,0.0,0.25,0.01995262314968879,1,1.0729340150010103
6,370,Increase,0.1,0.25,0.01995262314968879,1,0.973141445998408
6,371,Increase,0.1,0.25,0.015848931924611127,1,0.9618970660012565
6,372,Increase,0.1,0.25,0.012589254117941666,0,0.7829275190015323
6,373,Equal,0.1,0.1,0.01995262314968879,1,1.018338928999583
6,374,Increase,0.1,0.25,0.015848931924611127,1,0.847280084999511
6,375,Control,0.0,0.1,0.015848931924611127,1,0.7376708779993351
6,376,Decrease_null,0.25,0.1,0.01995262314968879,1,0.598496630000227
6,377,Equal,0.25,0.25,0.015848931924611127,1,0.5158909109995875
6,378,Increase,0.1,0.25,0.012589254117941666,0,0.7690524970003025
6,379,Equal,0.25,0.25,0.012589254117941666,0,0.5820233239992376
6,380,Control,0.0,0.1,0.012589254117941666,1,0.484482609999759
6,381,Control_null,0.0,0.25,0.03981071705534971,1,0.6333814520003216
6,382,Equal,0.1,0.1,0.015848931924611127,1,0.7673277729991241
6,383,Control,0.0,0.25,0.015848931924611127,1,0.5504918870010442
6,384,Decrease_null,0.25,0.1,0.015848931924611127,1,0.5838987480001379
6,385,Control,0.0,0.25,0.012589254117941666,0,0.5733628220004903
6,386,Increase,0.1,0.25,0.015848931924611127,1,0.5605650479992619
6,387,Control,0.0,0.1,0.009999999999999995,1,0.8778865599997516
6,388,Control_null,0.0,0.25,0.031622776601683784,1,0.5429875810004887
6,389,Control,0.0,0.25,0.015848931924611127,1,0.4052148250011669
6,390,Control,0.0,0.25,0.012589254117941666,0,0.5943471159989713
6,391,Control_null,0.0,0.1,0.07943282347242815,1,0.607551691999106
6,392,Control,0.0,0.25,0.015848931924611127,1,0.4926669260003109
6,393,Control,0.0,0.25,0.012589254117941666,0,0.5299750240010326
6,394,Control,0.0,0.1,0.00794328234724281,0,0.6227827020011318
6,395,Increase,0.1,0.25,0.012589254117941666,0,0.49359083300078055
6,396,Equal,0.25,0.25,0.015848931924611127,1,0.5476155180003843
6,397,Equal,0.1,0.1,0.012589254117941666,0,0.5586307720004697
6,398,Control,0.0,0.25,0.015848931924611127,0,0.6440005760014174
6,399,Equal,0.25,0.25,0.012589254117941666,0,0.4470241260005423
6,400,Equal,0.25,0.25,0.015848931924611127,1,0.5321130459997221
6,401,Control,0.0,0.25,0.01995262314968879,1,0.5181299550004042
6,402,Increase,0.1,0.25,0.015848931924611127,0,0.43649764100155153
6,403,Increase,0.1,0.25,0.01995262314968879,1,0.5696991179993347
6,404,Increase,0.1,0.25,0.015848931924611127,0,0.6709448019992124
6,405,Increase,0.1,0.25,0.01995262314968879,0,0.42810108000048785
6,406,Equal,0.1,0.1,0.015848931924611127,0,0.40119526499984204
6,407,Equal,0.25,0.25,0.012589254117941666,1,0.5903356119997625
6,408,Decrease,0.25,0.1,0.015848931924611127,1,0.5812248419988464
6,409,Control,0.0,0.25,0.015848931924611127,1,0.5312736790001509
6,410,Equal,0.1,0.1,0.01995262314968879,1,0.5975621390007291
6,411,Equal,0.1,0.1,0.015848931924611127,1,0.5466985690000001
6,412,Equal_null,0.25,0.25,0.015848931924611127,1,0.541267667998909
6,413,Equal,0.1,0.1,0.012589254117941666,1,0.5714848789993994
6,414,Control,0.0,0.1,0.009999999999999995,0,0.44067277499925694
6,415,Decrease,0.25,0.1,0.012589254117941666,0,0.523851422000007
6,416,Control,0.0,0.1,0.012589254117941666,1,0.5770909610000672
6,417,Decrease,0.25,0.1,0.015848931924611127,1,0.6944560099982482
6,418,Control,0.0,0.25,0.012589254117941666,0,0.4592853609992744
6,419,Decrease,0.25,0.1,0.012589254117941666,0,0.4964633409999806
6,420,Equal,0.25,0.25,0.009999999999999995,0,0.45288632700066955
6,421,Increase,0.1,0.25,0.025118864315095794,1,0.45165467299921147
6,422,Control,0.0,0.25,0.015848931924611127,1,1.0018856030001189
6,423,Decrease,0.25,0.1,0.015848931924611127,1,0.750362958999176
6,424,Control,0.0,0.25,0.012589254117941666,0,0.4995229050000489
6,425,Decrease,0.25,0.1,0.012589254117941666,0,0.6248661429999629
6,426,Control,0.0,0.25,0.015848931924611127,1,1.0427389209999092
6,427,Decrease,0.25,0.1,0.015848931924611127,1,0.5680849280015536
6,428,Decrease,0.25,0.1,0.012589254117941666,1,0.5711860659994272
6,429,Increase,0.1,0.25,0.01995262314968879,0,1.0085631870006182
6,430,Decrease,0.25,0.1,0.009999999999999995,0,0.6056383699997241
6,431,Control,0.0,0.25,0.012589254117941666,0,0.5626383880007779
6,432,Increase,0.1,0.25,0.025118864315095794,1,0.5280727190001926
6,433,Increase,0.1,0.25,0.01995262314968879,1,0.5812190470005589
6,434,Increase_null,0.1,0.25,0.031622776601683784,1,0.769382898000913
6,435,Decrease,0.25,0.1,0.012589254117941666,1,0.6326639310009341
6,436,Control_null,0.0,0.1,0.06309573444801932,1,0.47891957300089416
6,437,Control,0.0,0.25,0.015848931924611127,1,0.7059556940002949
6,438,Equal,0.25,0.25,0.012589254117941666,0,0.8550962970002729
6,439,Control,0.0,0.25,0.012589254117941666,0,0.6332199270000274
6,440,Equal,0.1,0.1,0.009999999999999995,0,0.5423420650004118
6,441,Decrease,0.25,0.1,0.009999999999999995,1,0.5855157679998229
6,442,Decrease,0.25,0.1,0.00794328234724281,0,0.5996233799996844
6,443,Equal_null,0.25,0.25,0.012589254117941666,1,0.7011337750009261
6,444,Equal,0.25,0.25,0.015848931924611127,0,0.5218336470006761
6,445,Control,0.0,0.25,0.015848931924611127,0,0.45530947699990065
6,446,Equal,0.1,0.1,0.012589254117941666,0,0.43662722400040366
6,447,Control,0.0,0.25,0.01995262314968879,1,0.48954538999896613
6,448,Increase,0.1,0.25,0.015848931924611127,0,0.6078052109987766
6,449,Equal,0.25,0.25,0.01995262314968879,0,0.4695398589992692
6,450,Equal,0.1,0.1,0.015848931924611127,0,0.5202060640003765
6,451,Equal,0.25,0.25,0.025118864315095794,0,0.614407103999838
6,452,Equal_null,0.1,0.1,0.05011872336272722,1,0.45645946100012225
6,453,Increase,0.1,0.25,0.01995262314968879,0,0.43784447200050636
6,454,Decrease,0.25,0.1,0.009999999999999995,0,0.3528141370006779
6,455,Equal,0.1,0.1,0.01995262314968879,0,0.4462699600007909
6,456,Control,0.0,0.1,0.009999999999999995,0,0.4762975390003703
6,457,Control,0.0,0.25,0.015848931924611127,0,0.4417196710001008
6,458,Equal,0.25,0.25,0.031622776601683784,1,0.4306916830009868
6,459,Increase,0.1,0.25,0.025118864315095794,0,0.6599417449997418
6,460,Equal,0.25,0.25,0.02511886431509579,1,0.5288299109997752
6,461,Decrease_null,0.25,0.1,0.012589254117941666,1,0.7339968989999761
6,462,Increase,0.1,0.25,0.031622776601683784,1,0.5087933270006033
6,463,Control,0.0,0.1,0.012589254117941666,0,0.6086078319985972
6,464,Control,0.0,0.25,0.01995262314968879,0,0.7098990969989245
6,465,Equal,0.25,0.25,0.01995262314968879,0,0.49579094000000623
6,466,Increase,0.1,0.25,0.02511886431509579,0,0.8370524130004924
6,467,Equal,0.1,0.1,0.025118864315095794,1,1.0194590179999068
6,468,Control,0.0,0.25,0.025118864315095794,0,1.0306587249997392
6,469,Control,0.0,0.1,0.015848931924611127,1,0.6756801310002629
6,470,Increase,0.1,0.25,0.031622776601683784,1,0.9606601640007284
6,471,Control,0.0,0.1,0.012589254117941666,0,0.6059080199993332
6,472,Increase,0.1,0.25,0.02511886431509579,1,0.6353603839997959
6,473,Equal,0.25,0.25,0.025118864315095794,1,0.8830329310003435
6,474,Equal,0.25,0.25,0.01995262314968879,1,0.6387649329990381
6,475,Equal,0.1,0.1,0.01995262314968879,1,0.5167589430002408
6,476,Decrease,0.25,0.1,0.012589254117941666,0,0.7040339830000448
6,477,Equal,0.25,0.25,0.015848931924611127,1,0.3480166740009736
6,478,Decrease,0.25,0.1,0.015848931924611127,1,0.5452605549999134
6,479,Increase,0.1,0.25,0.01995262314968879,1,0.596527921001325
6,480,Equal,0.25,0.25,0.012589254117941666,0,0.41788140300013765
6,481,Control,0.0,0.1,0.015848931924611127,1,0.37999179500002356
6,482,Equal,0.25,0.25,0.015848931924611127,0,0.5852269249990059
6,483,Equal,0.25,0.25,0.01995262314968879,0,0.6042525570010184
6,484,Control_null,0.0,0.1,0.05011872336272722,1,0.49622745200031204
6,485,Decrease,0.25,0.1,0.012589254117941666,0,0.36610286900031497
6,486,Control,0.0,0.1,0.012589254117941666,0,0.3707710649996443
6,487,Increase,0.1,0.25,0.015848931924611127,1,0.6319916539996484
6,488,Increase,0.1,0.25,0.012589254117941666,1,0.6613749499992991
6,489,Equal,0.25,0.25,0.025118864315095794,1,0.7703335699989111
6,490,Equal,0.25,0.25,0.01995262314968879,1,0.6740083959994081
6,491,Equal,0.1,0.1,0.015848931924611127,1,0.6626718580009765
6,492,Equal,0.1,0.1,0.012589254117941666,0,0.6987784150005609
6,493,Control,0.0,0.25,0.031622776601683784,1,0.49609939900074096
6,494,Decrease,0.25,0.1,0.015848931924611127,0,0.7223262290008279
6,495,Control,0.0,0.25,0.02511886431509579,1,0.46451837300082843
6,496,Decrease_null,0.25,0.1,0.009999999999999995,1,0.6857657219989051
6,497,Equal,0.25,0.25,0.015848931924611127,1,0.5596974389991374
6,498,Equal,0.1,0.1,0.015848931924611127,1,0.9890426750007464
6,499,Control,0.0,0.1,0.015848931924611127,1,1.073322422000274
6,500,Increase,0.1,0.25,0.009999999999999995,1,1.0303363530001661
6,501,Equal,0.1,0.1,0.012589254117941666,0,0.7233930860002147
6,502,Equal,0.1,0.1,0.015848931924611127,1,0.8578557729997556
6,503,Equal_null,0.1,0.1,0.03981071705534971,1,0.7042828680005186
6,504,Decrease,0.25,0.1,0.01995262314968879,0,0.4625688460000674
6,505,Equal,0.25,0.25,0.012589254117941666,0,0.4890347340005974
6,506,Equal_null,0.25,0.25,0.009999999999999995,1,0.9425883519998024
6,507,Control,0.0,0.25,0.01995262314968879,1,0.7719454190009856
6,508,Equal,0.25,0.25,0.015848931924611127,0,0.9029158529992856
6,509,Control,0.0,0.25,0.015848931924611127,0,0.6199387399992702
6,510,Control,0.0,0.25,0.01995262314968879,1,0.5985422899993864
6,511,Equal,0.1,0.1,0.012589254117941666,0,0.4754078189998836
6,512,Increase,0.1,0.25,0.00794328234724281,0,0.6005811960003484
6,513,Equal,0.25,0.25,0.01995262314968879,1,0.49391382500107284
6,514,Equal,0.25,0.25,0.015848931924611127,0,0.5630057620001025
6,515,Increase,0.1,0.25,0.009999999999999995,0,0.3921544620006898
6,516,Equal_null,0.1,0.1,0.031622776601683784,0,0.926625308000439
6,517,Decrease,0.25,0.1,0.025118864315095794,1,0.7642155230005301
6,518,Increase,0.1,0.25,0.012589254117941666,0,0.6836187580011028
6,519,Equal,0.25,0.25,0.01995262314968879,1,0.8946729660001438
6,520,Equal,0.1,0.1,0.015848931924611127,0,0.6762353260000964
6,521,Decrease,0.25,0.1,0.01995262314968879,1,0.7101972250002291
6,522,Equal,0.25,0.25,0.015848931924611127,1,0.6274759820007603
6,523,Decrease,0.25,0.1,0.015848931924611127,1,0.6545684619995882
6,524,Increase,0.1,0.25,0.015848931924611127,0,0.4918505200002983
6,525,Control,0.0,0.25,0.015848931924611127,1,0.6090523219991155
6,526,Control,0.0,0.1,0.012589254117941666,0,0.4861436079991108
6,527,Decrease,0.25,0.1,0.012589254117941666,1,0.4353997079997498
6,528,Equal,0.1,0.1,0.01995262314968879,1,0.5286755039996933
6,529,Equal,0.25,0.25,0.012589254117941666,0,0.8217040780000389
6,530,Equal,0.25,0.25,0.015848931924611127,1,0.6840322619991639
6,531,Control,0.0,0.25,0.012589254117941666,0,0.6028293959989242
6,532,Equal,0.1,0.1,0.015848931924611127,0,0.452466684000683
6,533,Decrease,0.25,0.1,0.009999999999999995,0,0.4746171249989857
6,534,Increase,0.1,0.25,0.01995262314968879,1,0.4995978210008616
6,535,Equal_null,0.1,0.1,0.03981071705534971,0,0.6498372080004629
6,536,Equal,0.25,0.25,0.012589254117941666,0,0.4040321810007299
6,537,Equal,0.1,0.1,0.01995262314968879,0,0.7769070919985097
6,538,Equal,0.25,0.25,0.015848931924611127,1,0.7656235079994076
6,539,Control,0.0,0.1,0.015848931924611127,1,0.8105779020006594
6,540,Control_null,0.0,0.25,0.02511886431509579,1,0.5357220799996867
6,541,Control,0.0,0.1,0.012589254117941666,0,0.8123707889990328
6,542,Equal,0.1,0.1,0.025118864315095794,1,0.7300905230003991
6,543,Control,0.0,0.1,0.015848931924611127,1,0.7843163160014228
6,544,Equal,0.1,0.1,0.01995262314968879,1,0.4142967609986954
6,545,Control,0.0,0.1,0.012589254117941666,0,0.4013602270006231
6,546,Equal,0.1,0.1,0.015848931924611127,1,0.7986290729986649
6,547,Control_null,0.0,0.25,0.01995262314968879,1,0.6900559389996488
6,548,Control,0.0,0.1,0.015848931924611127,1,0.36735430999942764
6,549,Decrease,0.25,0.1,0.012589254117941666,0,0.7323132980000082
6,550,Control,0.0,0.25,0.015848931924611127,1,0.39168018999953347
6,551,Control,0.0,0.25,0.012589254117941666,0,0.787888300999839
6,552,Equal,0.25,0.25,0.012589254117941666,0,0.6578822850005963
6,553,Equal_null,0.1,0.1,0.05011872336272721,1,0.7032985539990477
6,554,Decrease,0.25,0.1,0.015848931924611127,0,0.7319525729999441
6,555,Control,0.0,0.25,0.015848931924611127,1,0.6172999260015786
6,556,Control,0.0,0.1,0.012589254117941666,0,0.6555380629997671
6,557,Equal,0.25,0.25,0.015848931924611127,1,0.6623917520009854
6,558,Control,0.0,0.25,0.012589254117941666,0,0.6340725869995367
6,559,Control,0.0,0.1,0.015848931924611127,1,0.551230637000117
6,560,Equal,0.1,0.1,0.012589254117941666,0,0.5894911470004445
6,561,Decrease,0.25,0.1,0.01995262314968879,1,0.4475684090011782
6,562,Increase,0.1,0.25,0.015848931924611127,1,1.0446908450012415
6,563,Increase,0.1,0.25,0.012589254117941666,0,0.4959399740000663
6,564,Equal_null,0.1,0.1,0.03981071705534971,1,0.42882145200019295
6,565,Decrease,0.25,0.1,0.015848931924611127,0,0.35404384800131083
6,566,Decrease,0.25,0.1,0.01995262314968879,0,0.7352625860003172
6,567,Equal,0.25,0.25,0.012589254117941666,0,0.5097954499997286
6,568,Increase_null,0.1,0.25,0.02511886431509579,1,0.370970452999245
6,569,Control,0.0,0.25,0.015848931924611127,0,0.46330457200019737
6,570,Increase,0.1,0.25,0.015848931924611127,1,0.5106634509993455
6,571,Control,0.0,0.1,0.012589254117941666,0,0.595955757999036
6,572,Decrease,0.25,0.1,0.025118864315095794,1,0.8306419809996441
6,573,Equal,0.25,0.25,0.015848931924611127,1,0.5476622120004322
6,574,Equal,0.25,0.25,0.012589254117941666,0,0.43097184100042796
6,575,Increase,0.1,0.25,0.012589254117941666,0,0.5643324570010009
6,576,Equal,0.25,0.25,0.015848931924611127,1,0.5353949820000707
6,577,Equal,0.1,0.1,0.015848931924611127,0,0.6367028559998289
6,578,Equal,0.1,0.1,0.01995262314968879,0,0.37752767900019535
6,579,Increase_null,0.1,0.25,0.01995262314968879,1,0.48660248499982117
6,580,Control,0.0,0.1,0.015848931924611127,0,0.5640079170007084
6,581,Increase,0.1,0.25,0.015848931924611127,1,0.49715857499904814
6,582,Control,0.0,0.1,0.01995262314968879,1,0.48641106499962916
6,583,Decrease,0.25,0.1,0.01995262314968879,1,0.4358434830010083
6,584,Increase,0.1,0.25,0.012589254117941666,0,0.7063179760007188
6,585,Control,0.0,0.25,0.01995262314968879,0,1.052007935999427
6,586,Decrease,0.25,0.1,0.015848931924611127,1,0.5133125520005706
6,587,Equal,0.25,0.25,0.012589254117941666,0,0.5793385569995735
6,588,Control,0.0,0.25,0.025118864315095794,1,0.5216544989998511
6,589,Increase,0.1,0.25,0.015848931924611127,1,0.6206239050006843
6,590,Equal,0.25,0.25,0.015848931924611127,1,0.5775589830009267
6,591,Equal_null,0.25,0.25,0.00794328234724281,0,0.6550148890000855
6,592,Decrease,0.25,0.1,0.012589254117941666,1,0.8120889670008182
6,593,Equal,0.25,0.25,0.012589254117941666,1,0.8265011739986221
6,594,Decrease,0.25,0.1,0.009999999999999995,0,0.4636810929987405
6,595,Equal,0.25,0.25,0.009999999999999995,0,0.4286106359995756
6,596,Increase,0.1,0.25,0.012589254117941666,0,0.3394451799995295
6,597,Increase,0.1,0.25,0.015848931924611127,1,0.46398340800078586
6,598,Increase,0.1,0.25,0.012589254117941666,0,0.7711885770004301
6,599,Control,0.0,0.25,0.01995262314968879,1,0.6003584699992643
6,600,Control,0.0,0.1,0.015848931924611127,0,0.6731446370013145
6,601,Control,0.0,0.25,0.015848931924611127,1,0.3390722240001196
6,602,Control,0.0,0.25,0.012589254117941666,0,0.4804817389995151
6,603,Control,0.0,0.1,0.01995262314968879,1,0.3955071169984876
6,604,Increase,0.1,0.25,0.015848931924611127,0,0.5929646790009429
6,605,Control,0.0,0.25,0.015848931924611127,1,0.3248477359993558
6,606,Equal,0.1,0.1,0.025118864315095794,1,0.3621374529993773
6,607,Decrease,0.25,0.1,0.012589254117941666,1,0.4242876959997375
6,608,Increase,0.1,0.25,0.01995262314968879,1,0.6373444569999265
6,609,Equal,0.25,0.25,0.012589254117941666,1,1.0348115369997686
6,610,Equal,0.1,0.1,0.01995262314968879,1,0.6568658649994177
6,611,Control,0.0,0.1,0.015848931924611127,1,0.6484693600013998
6,612,Control,0.0,0.1,0.012589254117941666,1,0.39515989599931345
6,613,Equal,0.25,0.25,0.009999999999999995,0,0.5204187109993654
6,614,Decrease,0.25,0.1,0.009999999999999995,0,0.5386122270010674
6,615,Control,0.0,0.25,0.012589254117941666,0,0.567825983000148
6,616,Equal,0.25,0.25,0.012589254117941666,0,99
6,617,Control,0.0,0.1,0.009999999999999995,1,1.0071215240004676
6,618,Equal,0.25,0.25,0.015848931924611127,1,0.7803249360003974
6,619,Decrease,0.25,0.1,0.012589254117941666,0,0.6985089529989637
6,620,Equal,0.25,0.25,0.012589254117941666,0,0.591788865000126
6,621,Decrease,0.25,0.1,0.015848931924611127,1,0.5248527660005493
6,622,Decrease,0.25,0.1,0.012589254117941666,0,0.6180129370004579
6,623,Control_null,0.0,0.1,0.03981071705534971,1,0.632642113001566
6,624,Increase,0.1,0.25,0.015848931924611127,0,0.4549984040004347
6,625,Equal,0.1,0.1,0.015848931924611127,1,0.4653211730001203
6,626,Equal,0.25,0.25,0.015848931924611127,0,0.4145379090005008
6,627,Increase,0.1,0.25,0.01995262314968879,1,0.42604046700034814
6,628,Control,0.0,0.1,0.00794328234724281,0,0.5671917199997552
6,629,Control,0.0,0.1,0.009999999999999995,1,0.4842664589996275
6,630,Equal,0.25,0.25,0.01995262314968879,0,0.48642902099891216
6,631,Equal,0.1,0.1,0.012589254117941666,0,0.39571989300020505
6,632,Increase_null,0.1,0.25,0.015848931924611127,1,0.4729065610008547
6,633,Equal,0.1,0.1,0.015848931924611127,1,0.46194422299959115
6,634,Control,0.0,0.1,0.00794328234724281,0,0.47382103000018105
6,635,Increase,0.1,0.25,0.015848931924611127,1,0.8324532440001349
6,636,Control,0.0,0.1,0.009999999999999995,0,0.6220476230009808
6,637,Control,0.0,0.1,0.012589254117941666,0,0.5650183029993059
6,638,Control,0.0,0.1,0.015848931924611127,1,0.5290814769996359
6,639,Equal,0.25,0.25,0.025118864315095794,1,0.41424981099953584
6,640,Increase,0.1,0.25,0.012589254117941666,1,0.6192644369984919
6,641,Equal,0.25,0.25,0.01995262314968879,1,0.9585566940004355
6,642,Increase,0.1,0.25,0.009999999999999995,0,0.6278322289999778
6,643,Control,0.0,0.25,0.015848931924611127,1,0.7817385709986411
6,644,Control,0.0,0.1,0.012589254117941666,1,0.6911754809989361
6,645,Control,0.0,0.25,0.012589254117941666,0,0.5681949700010591
6,646,Decrease,0.25,0.1,0.015848931924611127,1,0.6133988849996967
6,647,Equal,0.1,0.1,0.012589254117941666,0,0.4594575539995276
6,648,Increase,0.1,0.25,0.012589254117941666,0,0.40073027499965974
6,649,Control,0.0,0.25,0.015848931924611127,0,0.7825859439999476
6,650,Equal,0.1,0.1,0.015848931924611127,1,0.5649513970001863
6,651,Equal,0.25,0.25,0.015848931924611127,0,0.810395755999707
6,652,Decrease,0.25,0.1,0.012589254117941666,0,0.5735627209996892
6,653,Equal,0.1,0.1,0.012589254117941666,0,0.6430303779998212
6,654,Increase,0.1,0.25,0.015848931924611127,1,0.5005723939993914
6,655,Decrease_null,0.25,0.1,0.00794328234724281,1,0.4899571770001785
6,656,Equal,0.25,0.25,0.01995262314968879,0,0.5974850289985625
6,657,Decrease,0.25,0.1,0.015848931924611127,0,0.6025876530002279
6,658,Control,0.0,0.1,0.009999999999999995,0,0.4872421670006588
6,659,Control_null,0.0,0.1,0.031622776601683784,1,0.41401204600151686
6,660,Increase,0.1,0.25,0.012589254117941666,0,0.46704200800013496
6,661,Decrease,0.25,0.1,0.01995262314968879,1,0.4713051060007274
6,662,Control,0.0,0.25,0.01995262314968879,0,0.5484470390001661
6,663,Increase_null,0.1,0.25,0.012589254117941666,1,0.56207426400033
6,664,Control,0.0,0.25,0.025118864315095794,1,0.512870557999122
6,665,Equal,0.1,0.1,0.015848931924611127,1,0.5078945730001578
6,666,Control,0.0,0.1,0.012589254117941666,1,0.513076932000331
6,667,Control,0.0,0.25,0.01995262314968879,1,0.4670078489998559
6,668,Control,0.0,0.1,0.009999999999999995,1,0.9762501919994975
6,669,Equal,0.1,0.1,0.012589254117941666,1,0.9481076259999099
6,670,Equal,0.1,0.1,0.009999999999999995,1,0.8567437929996231
6,671,Control,0.0,0.25,0.015848931924611127,1,0.6552543830002833
6,672,Control_null,0.0,0.25,0.015848931924611127,1,0.7160216320007748
6,673,Decrease,0.25,0.1,0.015848931924611127,1,0.6014682529985294
6,674,Decrease,0.25,0.1,0.012589254117941666,0,0.3746567359994515
6,675,Control,0.0,0.25,0.012589254117941666,1,0.868031179999889
6,676,Equal,0.25,0.25,0.025118864315095794,1,0.5782090979992063
6,677,Decrease,0.25,0.1,0.015848931924611127,1,0.5437548110003263
6,678,Decrease,0.25,0.1,0.012589254117941666,0,0.7393249360011396
6,679,Increase,0.1,0.25,0.015848931924611127,1,0.5044321730001684
6,680,Equal,0.1,0.1,0.00794328234724281,0,0.674648664000415
6,681,Equal,0.1,0.1,0.009999999999999995,0,0.5355812790003256
6,682,Control,0.0,0.1,0.00794328234724281,0,0.5089319929993508
6,683,Control,0.0,0.25,0.009999999999999995,1,0.4083864820004237
6,684,Control,0.0,0.1,0.009999999999999995,0,0.4844564350005385
6,685,Control,0.0,0.25,0.00794328234724281,0,0.7294784609985072
6,686,Control,0.0,0.25,0.009999999999999995,0,0.47877422900091915
6,687,Equal,0.1,0.1,0.012589254117941666,0,0.4919155009993119
6,688,Control,0.0,0.1,0.012589254117941666,0,0.37784874600038165
6,689,Control,0.0,0.1,0.015848931924611127,0,0.44735604299967235
6,690,Decrease,0.25,0.1,0.015848931924611127,1,0.48694025199984026
6,691,Increase,0.1,0.25,0.012589254117941666,0,0.44175254500078154
6,692,Equal,0.25,0.25,0.01995262314968879,1,0.3990729580000334
6,693,Equal,0.25,0.25,0.015848931924611127,1,1.0041529789996275
6,694,Control_null,0.0,0.25,0.012589254117941666,1,0.5983085080006276
6,695,Decrease,0.25,0.1,0.012589254117941666,0,0.7795461349996913
6,696,Equal,0.1,0.1,0.015848931924611127,1,0.5677845099999104
6,697,Control,0.0,0.1,0.01995262314968879,1,1.0366304539984412
6,698,Decrease,0.25,0.1,0.015848931924611127,1,0.7780875400003424
6,699,Equal,0.25,0.25,0.012589254117941666,0,0.5190028799988795
6,700,Control,0.0,0.25,0.012589254117941666,0,0.5640443829997821
6,701,Control,0.0,0.25,0.015848931924611127,1,0.6825266920004651
6,702,Decrease,0.25,0.1,0.012589254117941666,0,0.3594594380010676
6,703,Equal,0.25,0.25,0.015848931924611127,1,0.5247354219991394
6,704,Equal,0.25,0.25,0.012589254117941666,0,0.8349337910003669
6,705,Decrease,0.25,0.1,0.015848931924611127,1,0.6692166399989219
6,706,Increase,0.1,0.25,0.015848931924611127,1,0.9314112049996766
6,707,Increase,0.1,0.25,0.012589254117941666,0,0.733798585999466
6,708,Equal,0.1,0.1,0.012589254117941666,0,0.7147615400008362
6,709,Equal,0.25,0.25,0.015848931924611127,1,0.5510169619992666
6,710,Equal,0.1,0.1,0.015848931924611127,0,0.35613834200012207
6,711,Equal,0.1,0.1,0.01995262314968879,0,0.4493842969986872
6,712,Equal,0.1,0.1,0.025118864315095794,1,0.5908263149995037
6,713,Control,0.0,0.1,0.015848931924611127,1,1.1238145499992243
6,714,Control,0.0,0.1,0.012589254117941666,1,0.4898363789998257
6,715,Decrease,0.25,0.1,0.012589254117941666,0,0.5744595870000921
6,716,Decrease,0.25,0.1,0.015848931924611127,1,0.8840504679992591
6,717,Decrease,0.25,0.1,0.012589254117941666,0,0.5959487020008964
6,718,Equal,0.25,0.25,0.012589254117941666,0,0.41347666200090316
6,719,Equal,0.1,0.1,0.01995262314968879,0,0.4744033360002504
6,720,Increase,0.1,0.25,0.015848931924611127,0,1.0702499369999714
6,721,Equal,0.1,0.1,0.025118864315095794,1,0.9522552329999598
6,722,Decrease_null,0.25,0.1,0.0063095734448019285,1,0.5575902220007265
6,723,Equal,0.1,0.1,0.01995262314968879,1,1.0757816420009476
6,724,Control,0.0,0.25,0.012589254117941666,0,0.5674433340009273
6,725,Increase,0.1,0.25,0.01995262314968879,1,0.3567458870002156
6,726,Equal,0.25,0.25,0.015848931924611127,0,0.5863473209992662
6,727,Control,0.0,0.25,0.015848931924611127,1,0.4722597530017083
6,728,Control,0.0,0.25,0.012589254117941666,0,0.7183115059997363
6,729,Control,0.0,0.25,0.015848931924611127,1,0.46885723500054155
6,730,Control,0.0,0.1,0.009999999999999995,0,0.4248751289997017
6,731,Decrease,0.25,0.1,0.015848931924611127,0,0.4062139079996996
6,732,Equal,0.25,0.25,0.01995262314968879,1,0.42706122800154844
6,733,Equal,0.1,0.1,0.015848931924611127,1,0.6293736990010075
6,734,Equal,0.25,0.25,0.015848931924611127,1,0.7315503980007634
6,735,Equal,0.25,0.25,0.012589254117941666,1,0.6059366350000346
6,736,Decrease,0.25,0.1,0.01995262314968879,0,0.6749382979996881
6,737,Control,0.0,0.25,0.012589254117941666,0,0.8402085899997473
6,738,Control_null,0.0,0.1,0.02511886431509579,1,0.44548197199947026
6,739,Control,0.0,0.25,0.015848931924611127,1,0.8263556239999161
6,740,Decrease,0.25,0.1,0.025118864315095794,1,0.5917045319984027
6,741,Equal,0.25,0.25,0.009999999999999995,0,0.549485277999338
6,742,Control,0.0,0.25,0.012589254117941666,1,0.7324173059987515
6,743,Decrease,0.25,0.1,0.01995262314968879,0,0.7068237009989389
6,744,Control,0.0,0.1,0.012589254117941666,0,0.6304651379996358
6,745,Equal,0.1,0.1,0.012589254117941666,0,0.5077889889998914
6,746,Equal,0.25,0.25,0.012589254117941666,0,0.9658347270014929
6,747,Decrease,0.25,0.1,0.025118864315095794,1,0.6750606589994277
6,748,Equal,0.1,0.1,0.015848931924611127,0,0.6383012460009923
6,749,Control,0.0,0.1,0.015848931924611127,1,0.5073379860004934
6,750,Control,0.0,0.25,0.009999999999999995,0,0.38449648300047556
6,751,Decrease,0.25,0.1,0.01995262314968879,1,0.43778415999986464
6,752,Decrease,0.25,0.1,0.015848931924611127,0,0.41092987499905576
6,753,Control,0.0,0.25,0.012589254117941666,0,0.4570888460002607
6,754,Increase,0.1,0.25,0.015848931924611127,1,0.5343872650009871
6,755,Decrease,0.25,0.1,0.01995262314968879,1,0.5640616830005456
6,756,Equal,0.1,0.1,0.01995262314968879,1,0.6031409480001457
6,757,Equal,0.1,0.1,0.015848931924611127,1,0.5419368110015057
6,758,Decrease,0.25,0.1,0.015848931924611127,1,0.5149251380007627
6,759,Control,0.0,0.25,0.015848931924611127,1,0.6693514800008415
6,760,Equal_null,0.1,0.1,0.031622776601683784,1,0.5624386229992524
6,761,Control,0.0,0.25,0.012589254117941666,0,0.4855029200007266
6,762,Equal,0.1,0.1,0.012589254117941666,0,0.5709908610006096
6,763,Equal,0.1,0.1,0.015848931924611127,1,0.5998848710005404
6,764,Equal,0.1,0.1,0.012589254117941666,0,0.7491213749999588
6,765,Equal,0.1,0.1,0.015848931924611127,1,0.7464199250007368
6,766,Increase,0.1,0.25,0.012589254117941666,0,0.6085382500004926
6,767,Control,0.0,0.1,0.012589254117941666,0,0.6537851089997275
6,768,Equal,0.25,0.25,0.015848931924611127,1,0.48344700999950874
6,769,Equal,0.1,0.1,0.012589254117941666,0,0.6818807199997536
6,770,Control,0.0,0.25,0.015848931924611127,1,0.5416664059994218
6,771,Equal,0.25,0.25,0.012589254117941666,1,0.6343599369993171
6,772,Increase_null,0.1,0.25,0.009999999999999995,1,0.5177032350002264
6,773,Equal,0.25,0.25,0.009999999999999995,0,0.4267241899997316
6,774,Decrease,0.25,0.1,0.012589254117941666,0,0.5761466759995528
6,775,Decrease,0.25,0.1,0.015848931924611127,1,0.6831159149987798
6,776,Equal,0.25,0.25,0.012589254117941666,0,0.5837403059995268
6,777,Control,0.0,0.1,0.015848931924611127,0,0.3976415729994187
6,778,Decrease,0.25,0.1,0.012589254117941666,0,0.46650772000066354
6,779,Control,0.0,0.25,0.012589254117941666,0,0.49558851499932643
6,780,Decrease,0.25,0.1,0.015848931924611127,1,0.5091136280007049
6,781,Equal,0.1,0.1,0.015848931924611127,0,0.7158273240002018
6,782,Control,0.0,0.1,0.01995262314968879,1,0.4341670579997299
6,783,Increase,0.1,0.25,0.015848931924611127,0,0.6293426219999674
6,784,Increase,0.1,0.25,0.01995262314968879,1,0.5457730399994034
6,785,Decrease,0.25,0.1,0.012589254117941666,0,0.5190526710011909
6,786,Increase,0.1,0.25,0.015848931924611127,1,0.48200942800031044
6,787,Increase_null,0.1,0.25,0.00794328234724281,1,0.5272616639995249
6,788,Equal,0.25,0.25,0.015848931924611127,1,0.6903992980005569
6,789,Control,0.0,0.1,0.015848931924611127,1,0.6878327709982841
6,790,Equal,0.1,0.1,0.01995262314968879,0,0.9404368979994615
6,791,Increase,0.1,0.25,0.012589254117941666,0,0.6100036880015978
6,792,Equal,0.25,0.25,0.012589254117941666,0,0.3833008809997409
6,793,Control,0.0,0.25,0.015848931924611127,1,0.5324896940001054
6,794,Control,0.0,0.25,0.012589254117941666,0,0.3379374160012958
6,795,Decrease,0.25,0.1,0.015848931924611127,0,0.6877288889991178
6,796,Decrease,0.25,0.1,0.01995262314968879,0,0.39151707400014857
6,797,Increase,0.1,0.25,0.015848931924611127,1,0.4092556890009291
6,798,Control,0.0,0.25,0.015848931924611127,0,0.7024164340000425
6,799,Decrease,0.25,0.1,0.025118864315095794,1,0.5135881389996939
6,800,Increase,0.1,0.25,0.012589254117941666,0,0.42281855199871643
6,801,Equal,0.1,0.1,0.025118864315095794,0,99
6,802,Control_null,0.0,0.1,0.01995262314968879,1,0.9353642320002109
6,803,Control,0.0,0.1,0.012589254117941666,1,0.916291289999208
6,804,Increase_null,0.1,0.25,0.0063095734448019285,1,0.7386024580009689
6,805,Increase,0.1,0.25,0.015848931924611127,1,0.8225977229994896
6,806,Equal,0.1,0.1,0.031622776601683784,1,0.8448032560008869
6,807,Equal,0.25,0.25,0.015848931924611127,0,1.0340114449991233
6,808,Equal,0.25,0.25,0.01995262314968879,0,99
6,809,Control,0.0,0.25,0.01995262314968879,1,0.5011065279995819
6,810,Equal,0.25,0.25,0.025118864315095794,1,0.5195096909992571
6,811,Increase,0.1,0.25,0.012589254117941666,1,0.5577377770005114
6,812,Equal,0.25,0.25,0.01995262314968879,1,0.6399710480000067
6,813,Increase,0.1,0.25,0.009999999999999995,0,0.8289734569989378
6,814,Control,0.0,0.1,0.009999999999999995,1,0.6963652829999774
6,815,Control,0.0,0.1,0.00794328234724281,0,0.5583386380003503
6,816,Increase_null,0.1,0.25,0.005011872336272719,1,0.5157309210007952
6,817,Control,0.0,0.25,0.015848931924611127,1,0.6247869740000169
6,818,Control,0.0,0.25,0.012589254117941666,1,0.7419768620002287
6,819,Decrease,0.25,0.1,0.01995262314968879,1,0.7162453189994267
6,820,Equal,0.1,0.1,0.02511886431509579,1,0.4574444050012971
6,821,Control,0.0,0.25,0.009999999999999995,0,0.7254760410014569
6,822,Increase,0.1,0.25,0.012589254117941666,0,0.4990802599986637
6,823,Control,0.0,0.25,0.012589254117941666,0,0.5579146410000249
6,824,Equal,0.1,0.1,0.01995262314968879,1,0.6911016579997522
6,825,Control_null,0.0,0.1,0.015848931924611127,1,0.6530791919994954
6,826,Equal,0.1,0.1,0.015848931924611127,1,0.5223951799998758
6,827,Equal,0.1,0.1,0.012589254117941666,0,0.7998068109991436
6,828,Equal,0.25,0.25,0.015848931924611127,0,0.443837564000205
6,829,Equal,0.25,0.25,0.01995262314968879,0,0.4810983799998212
6,830,Increase,0.1,0.25,0.015848931924611127,1,0.5663676129988744
6,831,Equal,0.1,0.1,0.015848931924611127,0,0.7234102149996033
6,832,Increase,0.1,0.25,0.012589254117941666,0,0.44060477600032755
6,833,Equal,0.1,0.1,0.01995262314968879,1,0.5417821039991395
6,834,Control,0.0,0.25,0.015848931924611127,1,0.514565423998647
6,835,Equal,0.1,0.1,0.015848931924611127,1,0.5372229929998866
6,836,Equal,0.1,0.1,0.012589254117941666,1,0.7244836270001542
6,837,Equal,0.25,0.25,0.025118864315095794,1,0.6255226070006756
6,838,Increase,0.1,0.25,0.015848931924611127,0,99
6,839,Decrease,0.25,0.1,0.015848931924611127,0,0.7218801449998864
6,840,Increase,0.1,0.25,0.01995262314968879,0,0.7160275309997814
6,841,Equal,0.25,0.25,0.01995262314968879,1,0.5550010499991913
6,842,Control,0.0,0.1,0.009999999999999995,0,0.5866366800000833
6,843,Control,0.0,0.1,0.012589254117941666,0,0.6532659430013155
6,844,Equal,0.25,0.25,0.015848931924611127,0,0.5704896990009729
6,845,Equal_null,0.1,0.1,0.02511886431509579,1,0.3171093460005068
6,846,Equal,0.25,0.25,0.01995262314968879,1,0.46555073999843444
6,847,Decrease,0.25,0.1,0.01995262314968879,0,0.29284793099941453
6,848,Equal,0.1,0.1,0.009999999999999995,0,0.2901810250004928
6,849,Control,0.0,0.1,0.015848931924611127,0,0.28746217000116303
6,850,Decrease,0.25,0.1,0.025118864315095794,1,0.46767777999957616
6,851,Control_null,0.0,0.25,0.009999999999999995,1,0.36172170899953926
6,852,Control,0.0,0.25,0.012589254117941666,0,0.24703687799956242
6,853,Equal,0.1,0.1,0.012589254117941666,0,0.30008522999924025
6,854,Decrease_null,0.25,0.1,0.005011872336272719,0,0.6983297919996403
6,855,Control,0.0,0.25,0.015848931924611127,0,99
6,856,Equal_null,0.1,0.1,0.01995262314968879,0,0.5580331310011388
6,857,Control,0.0,0.25,0.01995262314968879,1,0.5389861570001813
6,858,Control,0.0,0.1,0.01995262314968879,1,0.4452410049998434
6,859,Increase,0.1,0.25,0.025118864315095794,1,0.5624187140001595
6,860,Equal,0.25,0.25,0.015848931924611127,1,0.6473815610006568
6,861,Control,0.0,0.1,0.015848931924611127,0,0.4746303240008274
6,862,Equal,0.1,0.1,0.015848931924611127,0,0.711837552000361
6,863,Decrease,0.25,0.1,0.01995262314968879,0,0.49303240299923345
6,864,Equal,0.25,0.25,0.012589254117941666,1,0.49032438500034914
6,865,Decrease,0.25,0.1,0.025118864315095794,1,0.6953247980000015
6,866,Equal,0.1,0.1,0.01995262314968879,1,0.4607164829994872
6,867,Increase,0.1,0.25,0.01995262314968879,1,1.0105718140002864
6,868,Increase,0.1,0.25,0.015848931924611127,0,0.8248314150005172
6,869,Equal,0.25,0.25,0.009999999999999995,0,0.35973363300036
6,870,Control,0.0,0.1,0.01995262314968879,1,0.6022417140011385
6,871,Control,0.0,0.1,0.015848931924611127,0,99
6,872,Decrease,0.25,0.1,0.01995262314968879,1,0.618555703000311
6,873,Control,0.0,0.1,0.01995262314968879,0,99
6,874,Increase,0.1,0.25,0.01995262314968879,0,0.4176763729992672
6,875,Control,0.0,0.25,0.015848931924611127,1,0.911140123000223
6,876,Equal,0.25,0.25,0.012589254117941666,1,0.7643468990008842
6,877,Control,0.0,0.1,0.025118864315095794,1,0.6415461220003635
6,878,Increase,0.1,0.25,0.025118864315095794,1,0.4629216280009132
6,879,Decrease,0.25,0.1,0.015848931924611127,0,0.6201771099986217
6,880,Equal_null,0.25,0.25,0.009999999999999995,1,0.4251241679994564
6,881,Decrease,0.25,0.1,0.01995262314968879,1,1.1365504220011644
6,882,Increase,0.1,0.25,0.01995262314968879,0,99
6,883,Equal,0.1,0.1,0.015848931924611127,1,0.5927813600010268
6,884,Control,0.0,0.1,0.01995262314968879,1,0.6779573549993074
6,885,Control,0.0,0.25,0.012589254117941666,0,0.5280552169988368
6,886,Equal,0.1,0.1,0.012589254117941666,1,1.085520496000754
6,887,Equal,0.1,0.1,0.009999999999999995,1,0.640435831999639
6,888,Decrease,0.25,0.1,0.015848931924611127,0,0.6059523439998884
6,889,Equal,0.25,0.25,0.009999999999999995,0,0.810693633999108
6,890,Increase_null,0.1,0.25,0.00398107170553497,1,0.4559321149990865
6,891,Equal,0.1,0.1,0.00794328234724281,0,0.4688346359998832
6,892,Decrease,0.25,0.1,0.01995262314968879,1,0.4897097559987742
6,893,Increase,0.1,0.25,0.025118864315095794,1,0.4395664149997174
6,894,Equal,0.25,0.25,0.012589254117941666,0,0.6695527240008232
6,895,Decrease_null,0.25,0.1,0.0063095734448019285,1,0.4762263440006791
6,896,Decrease,0.25,0.1,0.015848931924611127,0,0.44718886999908136
6,897,Equal,0.1,0.1,0.009999999999999995,0,0.3963760939986969
6,898,Equal,0.1,0.1,0.012589254117941666,0,0.5513925380000728
6,899,Increase,0.1,0.25,0.01995262314968879,1,0.5808346440007881
6,900,Equal,0.25,0.25,0.015848931924611127,0,1.0709553839988075
6,901,Decrease_null,0.25,0.1,0.005011872336272719,1,0.4440166809999937
6,902,Equal,0.25,0.25,0.01995262314968879,1,0.4653046449984686
6,903,Control,0.0,0.1,0.015848931924611127,1,0.7823097330001474
6,904,Control,0.0,0.25,0.015848931924611127,0,0.49138287999994645
6,905,Control,0.0,0.25,0.01995262314968879,1,0.6978570069986745
6,906,Equal_null,0.25,0.25,0.00794328234724281,1,0.7406272360003641
6,907,Control,0.0,0.1,0.012589254117941666,0,0.46679670400044415
6,908,Control,0.0,0.25,0.015848931924611127,0,0.5136286910001218
6,909,Increase,0.1,0.25,0.015848931924611127,0,0.4935390639984689
6,910,Increase,0.1,0.25,0.01995262314968879,1,0.4987526690001687
6,911,Increase,0.1,0.25,0.015848931924611127,1,0.5996800709999661
6,912,Control,0.0,0.25,0.01995262314968879,1,0.5141633479997836
6,913,Equal,0.25,0.25,0.015848931924611127,1,0.6072981929992238
6,914,Increase,0.1,0.25,0.012589254117941666,0,0.45015121000142244
6,915,Control,0.0,0.25,0.015848931924611127,1,0.687475643999278
6,916,Equal,0.25,0.25,0.012589254117941666,1,0.4136776219984313
6,917,Equal,0.1,0.1,0.015848931924611127,0,0.5149486830014212
6,918,Control,0.0,0.1,0.015848931924611127,1,0.6320942839993222
6,919,Decrease,0.25,0.1,0.01995262314968879,0,0.6130711830010114
6,920,Decrease_null,0.25,0.1,0.00398107170553497,1,0.47449953599971195
6,921,Control,0.0,0.1,0.012589254117941666,0,99
6,922,Increase,0.1,0.25,0.015848931924611127,1,0.8229115520007326
6,923,Control,0.0,0.1,0.015848931924611127,1,0.4810177350009326
6,924,Control,0.0,0.1,0.012589254117941666,0,0.703154746999644
6,925,Control,0.0,0.25,0.012589254117941666,0,0.48937531799856515
6,926,Control,0.0,0.1,0.015848931924611127,0,0.49470267499964393
6,927,Equal,0.1,0.1,0.01995262314968879,1,0.5217430430002423
6,928,Increase,0.1,0.25,0.012589254117941666,1,0.815079241998319
6,929,Decrease,0.25,0.1,0.025118864315095794,0,0.6039416430012352
6,930,Control,0.0,0.1,0.01995262314968879,0,0.5853151510000316
6,931,Increase,0.1,0.25,0.009999999999999995,0,0.5182355519991688
6,932,Equal,0.25,0.25,0.009999999999999995,0,0.4196495820015116
6,933,Control_null,0.0,0.1,0.012589254117941666,1,0.46584228400024585
6,934,Equal,0.25,0.25,0.012589254117941666,0,0.4634493020002992
6,935,Control,0.0,0.25,0.015848931924611127,1,0.36440161199971044
6,936,Equal,0.1,0.1,0.015848931924611127,1,0.5425424549994204
6,937,Decrease,0.25,0.1,0.031622776601683784,1,0.46741373099939665
6,938,Equal_null,0.1,0.1,0.025118864315095794,1,0.5187982349998492
6,939,Equal,0.1,0.1,0.012589254117941666,0,0.7720137460000842
6,940,Equal,0.25,0.25,0.015848931924611127,1,0.43114400200101954
6,941,Increase,0.1,0.25,0.012589254117941666,0,0.5164308630010055
6,942,Control,0.0,0.25,0.012589254117941666,0,1.194397247998495
6,943,Equal_null,0.25,0.25,0.0063095734448019285,1,0.4556579319996672
6,944,Equal,0.25,0.25,0.012589254117941666,0,0.49299296100070933
6,945,Increase,0.1,0.25,0.015848931924611127,0,0.4432200900009775
6,946,Decrease,0.25,0.1,0.02511886431509579,1,0.8642497990003903
6,947,Control,0.0,0.25,0.015848931924611127,0,0.4618855879998591
6,948,Control,0.0,0.1,0.025118864315095794,1,1.012247667000338
6,949,Increase,0.1,0.25,0.01995262314968879,0,1.1899528100002499
6,950,Control,0.0,0.25,0.01995262314968879,0,0.970799854998404
6,951,Decrease,0.25,0.1,0.01995262314968879,1,0.380989283999952
6,952,Increase,0.1,0.25,0.025118864315095794,1,0.6264386729999387
6,953,Control,0.0,0.1,0.01995262314968879,0,0.6005306970000674
6,954,Equal,0.25,0.25,0.015848931924611127,0,0.4917729070002679
6,955,Increase_null,0.1,0.25,0.0031622776601683772,1,0.3379508199996053
6,956,Equal,0.1,0.1,0.015848931924611127,0,0.4551294510001753
6,957,Control,0.0,0.1,0.025118864315095794,1,0.5404102439988492
6,958,Control,0.0,0.1,0.01995262314968879,0,0.64261819100102
6,959,Equal,0.25,0.25,0.01995262314968879,1,0.44777136699849507
