Participant_Number,Trial_Number,Condition,FC_distal,FC_proximal,Target_Contrast,Correct_Response,Reaction_Time
20,0,Equal,0.1,0.1,0.1,0,0.8639505020000797
20,1,Decrease,0.25,0.1,0.1,1,0.5283902160008438
20,2,Equal,0.25,0.25,0.1,1,0.49170554600095784
20,3,Control,0.0,0.25,0.1,1,0.6230122890010534
20,4,Control,0.0,0.25,0.07943282347242815,1,0.5860317200003919
20,5,Equal,0.25,0.25,0.07943282347242815,1,0.49292741699900944
20,6,Decrease,0.25,0.1,0.07943282347242815,1,0.3772672830000374
20,7,Decrease,0.25,0.1,0.06309573444801932,1,0.5564342189991294
20,8,Control,0.0,0.1,0.1,1,0.2970944450007664
20,9,Equal,0.1,0.1,0.1,1,0.26116539199938416
20,10,Decrease,0.25,0.1,0.05011872336272722,1,0.5177275699988968
20,11,Decrease,0.25,0.1,0.03981071705534971,1,0.46514784400096687
20,12,Equal,0.25,0.25,0.06309573444801932,1,0.5063907619987731
20,13,Control,0.0,0.25,0.06309573444801932,1,0.4936692520004726
20,14,Decrease,0.25,0.1,0.031622776601683784,1,0.4217879110001377
20,15,Control,0.0,0.1,0.07943282347242815,1,0.41799703399919963
20,16,Equal,0.1,0.1,0.07943282347242815,1,0.41244152400031453
20,17,Control_null,0.0,0.25,0.1,1,0.8964320409995707
20,18,Equal,0.1,0.1,0.06309573444801932,1,0.3795509330011555
20,19,Control,0.0,0.1,0.06309573444801932,1,0.38251235900133906
20,20,Decrease,0.25,0.1,0.02511886431509579,1,0.2899020209988521
20,21,Decrease,0.25,0.1,0.01995262314968879,1,0.2952324359994236
20,22,Control,0.0,0.25,0.05011872336272722,1,0.33885620500041114
20,23,Increase,0.1,0.25,0.1,1,0.45954819500002486
20,24,Control_null,0.0,0.25,0.07943282347242815,1,0.639747499000805
20,25,Increase,0.1,0.25,0.07943282347242815,1,0.2635229890001938
20,26,Control,0.0,0.1,0.05011872336272722,1,0.3550977609993424
20,27,Increase,0.1,0.25,0.06309573444801932,1,0.3074604970006476
20,28,Increase,0.1,0.25,0.05011872336272722,1,0.3512005259999569
20,29,Control,0.0,0.1,0.03981071705534971,1,0.40254562399968563
20,30,Control,0.0,0.1,0.031622776601683784,1,0.4454553939995094
20,31,Increase,0.1,0.25,0.03981071705534971,1,0.42598857899974973
20,32,Increase,0.1,0.25,0.031622776601683784,1,0.39629083600084414
20,33,Decrease_null,0.25,0.1,0.1,1,0.6404150500002288
20,34,Equal,0.25,0.25,0.05011872336272722,1,0.2930089470009989
20,35,Equal,0.1,0.1,0.05011872336272722,1,0.2799329260014929
20,36,Control,0.0,0.25,0.03981071705534971,1,0.2807960780010035
20,37,Decrease,0.25,0.1,0.015848931924611127,1,0.42011487200034026
20,38,Decrease_null,0.25,0.1,0.07943282347242815,1,0.5413043429998652
20,39,Equal,0.25,0.25,0.03981071705534971,1,0.248511507999865
20,40,Control,0.0,0.1,0.02511886431509579,1,0.3214591969990579
20,41,Control,0.0,0.25,0.031622776601683784,1,0.5485237350003445
20,42,Increase,0.1,0.25,0.02511886431509579,1,0.3277785229984147
20,43,Decrease,0.25,0.1,0.012589254117941666,0,0.8193132689993945
20,44,Equal,0.25,0.25,0.031622776601683784,1,0.26218925600005605
20,45,Increase,0.1,0.25,0.01995262314968879,1,0.44969465900067007
20,46,Decrease,0.25,0.1,0.015848931924611127,0,0.34967954700005066
20,47,Increase,0.1,0.25,0.015848931924611127,1,0.888994040000398
20,48,Control,0.0,0.1,0.01995262314968879,1,0.47895503300060227
20,49,Equal,0.1,0.1,0.03981071705534971,1,0.4062493019991962
20,50,Decrease,0.25,0.1,0.01995262314968879,1,0.3624911759998213
20,51,Decrease,0.25,0.1,0.015848931924611127,1,0.8976172050006426
20,52,Control,0.0,0.1,0.015848931924611127,1,1.148837814000217
20,53,Control,0.0,0.1,0.012589254117941666,0,0.5498804520011618
20,54,Equal_null,0.25,0.25,0.1,1,0.36914768499991624
20,55,Increase,0.1,0.25,0.012589254117941666,0,0.4440620220011624
20,56,Increase,0.1,0.25,0.015848931924611127,1,0.9125836310013256
20,57,Control_null,0.0,0.1,0.1,1,0.41189567299988994
20,58,Control,0.0,0.25,0.02511886431509579,1,0.582997580000665
20,59,Equal,0.25,0.25,0.02511886431509579,1,0.41829201399923477
20,60,Equal,0.25,0.25,0.01995262314968879,1,0.7724752080011967
20,61,Control,0.0,0.1,0.015848931924611127,1,0.4988599240004987
20,62,Equal,0.1,0.1,0.031622776601683784,1,0.42655131200081087
20,63,Increase,0.1,0.25,0.012589254117941666,0,0.5735454780005966
20,64,Control,0.0,0.1,0.012589254117941666,0,0.5739390020007704
20,65,Equal,0.25,0.25,0.015848931924611127,1,1.0572608429993124
20,66,Equal,0.25,0.25,0.012589254117941666,0,0.5313556800010701
20,67,Control,0.0,0.1,0.015848931924611127,1,0.6866324919992621
20,68,Equal,0.1,0.1,0.02511886431509579,1,0.44981649500005005
20,69,Equal,0.1,0.1,0.01995262314968879,1,0.4448416709983576
20,70,Increase,0.1,0.25,0.015848931924611127,1,0.9681542350008385
20,71,Decrease,0.25,0.1,0.012589254117941666,0,0.4840985639984865
20,72,Increase,0.1,0.25,0.012589254117941666,0,0.28046214599999075
20,73,Decrease,0.25,0.1,0.015848931924611127,1,0.754586119999658
20,74,Equal,0.25,0.25,0.015848931924611127,1,0.7439000499998656
20,75,Increase,0.1,0.25,0.015848931924611127,1,0.4240069699990272
20,76,Increase,0.1,0.25,0.012589254117941666,0,0.6600816939990182
20,77,Equal,0.25,0.25,0.012589254117941666,0,0.8844019080006547
20,78,Equal,0.25,0.25,0.015848931924611127,1,0.9356869680013915
20,79,Increase,0.1,0.25,0.015848931924611127,1,0.47270994700011215
20,80,Equal,0.25,0.25,0.012589254117941666,0,0.7971264599982533
20,81,Increase,0.1,0.25,0.012589254117941666,0,0.5601193189995683
20,82,Increase,0.1,0.25,0.015848931924611127,1,0.4033871800002089
20,83,Control,0.0,0.1,0.012589254117941666,1,0.9266413410005043
20,84,Equal,0.25,0.25,0.015848931924611127,0,1.017712629000016
20,85,Control,0.0,0.25,0.01995262314968879,1,0.5659606980007084
20,86,Control,0.0,0.25,0.015848931924611127,0,0.8959792839996226
20,87,Equal,0.25,0.25,0.01995262314968879,1,0.6913114790004329
20,88,Increase_null,0.1,0.25,0.1,1,0.764558577000571
20,89,Decrease,0.25,0.1,0.012589254117941666,0,99
20,90,Equal,0.25,0.25,0.015848931924611127,0,99
20,91,Increase,0.1,0.25,0.012589254117941666,0,0.7549723270003597
20,92,Equal,0.1,0.1,0.015848931924611127,1,0.7324713870002597
20,93,Equal,0.25,0.25,0.01995262314968879,1,0.5274111770013405
20,94,Equal,0.25,0.25,0.015848931924611127,1,0.4905258489998232
20,95,Control_null,0.0,0.1,0.07943282347242815,1,0.5976963569992222
20,96,Equal,0.25,0.25,0.012589254117941666,0,0.4435862790014653
20,97,Control,0.0,0.1,0.009999999999999995,0,0.5982404660007887
20,98,Increase,0.1,0.25,0.015848931924611127,0,0.6513811570002872
20,99,Equal,0.1,0.1,0.012589254117941666,0,0.8615027989999362
20,100,Equal,0.1,0.1,0.015848931924611127,1,0.9124849690015253
20,101,Control,0.0,0.25,0.01995262314968879,1,1.0251013939996483
20,102,Control,0.0,0.1,0.012589254117941666,0,0.45997370800068893
20,103,Equal,0.25,0.25,0.015848931924611127,0,0.5084703669999726
20,104,Control,0.0,0.1,0.015848931924611127,0,0.6555208499994478
20,105,Decrease,0.25,0.1,0.015848931924611127,1,0.5535549960004573
20,106,Equal,0.1,0.1,0.012589254117941666,1,0.49385260099916195
20,107,Increase_null,0.1,0.25,0.07943282347242815,1,0.5210855789991911
20,108,Control,0.0,0.25,0.015848931924611127,0,1.228363084999728
20,109,Increase,0.1,0.25,0.01995262314968879,0,99
20,110,Equal_null,0.1,0.1,0.1,1,0.6301678640011232
20,111,Equal,0.25,0.25,0.01995262314968879,0,0.6408134010016511
20,112,Decrease,0.25,0.1,0.012589254117941666,0,0.5149046730002738
20,113,Control,0.0,0.25,0.01995262314968879,1,0.7820802489986818
20,114,Decrease,0.25,0.1,0.015848931924611127,1,0.5593866970011732
20,115,Decrease,0.25,0.1,0.012589254117941666,0,0.594621392998306
20,116,Equal_null,0.1,0.1,0.07943282347242815,1,0.6425403249995725
20,117,Control,0.0,0.1,0.01995262314968879,1,1.1416066080000746
20,118,Control,0.0,0.1,0.015848931924611127,1,0.5129900229985651
20,119,Equal,0.1,0.1,0.009999999999999995,0,0.5083672880009544
20,120,Control,0.0,0.25,0.015848931924611127,1,0.4671447740001895
20,121,Increase,0.1,0.25,0.025118864315095794,1,0.5503838479999104
20,122,Increase,0.1,0.25,0.01995262314968879,1,0.5995090910000727
20,123,Decrease,0.25,0.1,0.015848931924611127,0,0.4987585079998098
20,124,Control_null,0.0,0.25,0.06309573444801932,1,0.46193051299997023
20,125,Control,0.0,0.1,0.012589254117941666,0,0.5610956740001711
20,126,Equal,0.25,0.25,0.025118864315095794,1,0.5083155250013078
20,127,Increase,0.1,0.25,0.015848931924611127,1,0.8634533740005281
20,128,Equal,0.25,0.25,0.01995262314968879,1,0.7386246679998294
20,129,Decrease,0.25,0.1,0.01995262314968879,1,0.8949490009999863
20,130,Equal,0.1,0.1,0.012589254117941666,0,0.42054832900066685
20,131,Control,0.0,0.1,0.015848931924611127,1,0.5331645070000377
20,132,Decrease,0.25,0.1,0.015848931924611127,1,0.43243839599927014
20,133,Decrease,0.25,0.1,0.012589254117941666,0,0.6003224510004657
20,134,Equal,0.1,0.1,0.015848931924611127,0,0.8759009370005515
20,135,Decrease,0.25,0.1,0.015848931924611127,1,0.45276877600008447
20,136,Decrease_null,0.25,0.1,0.06309573444801932,1,0.4557232490005845
20,137,Control,0.0,0.1,0.012589254117941666,0,0.5072082080005202
20,138,Increase,0.1,0.25,0.012589254117941666,0,0.5023640359995625
20,139,Decrease,0.25,0.1,0.012589254117941666,0,0.513667886998519
20,140,Control,0.0,0.25,0.012589254117941666,0,0.5899899050000386
20,141,Decrease,0.25,0.1,0.015848931924611127,1,0.46519928599991545
20,142,Equal,0.1,0.1,0.01995262314968879,0,0.8052957550007704
20,143,Control_null,0.0,0.1,0.06309573444801932,1,0.5305892060005135
20,144,Control,0.0,0.25,0.015848931924611127,0,0.6118664329987951
20,145,Equal_null,0.1,0.1,0.06309573444801932,1,0.5025654710007075
20,146,Increase_null,0.1,0.25,0.06309573444801932,1,0.551063394999801
20,147,Equal,0.25,0.25,0.015848931924611127,0,0.9313542830004735
20,148,Control,0.0,0.1,0.015848931924611127,1,0.42616809799983457
20,149,Control,0.0,0.1,0.012589254117941666,0,0.5406703810003819
20,150,Control_null,0.0,0.1,0.05011872336272722,1,0.5185743769998226
20,151,Increase,0.1,0.25,0.015848931924611127,0,0.48971317500036093
20,152,Equal,0.25,0.25,0.01995262314968879,0,0.6368874510008027
20,153,Control,0.0,0.1,0.015848931924611127,0,0.8003856539999106
20,154,Increase,0.1,0.25,0.01995262314968879,0,0.5715944820003642
20,155,Decrease,0.25,0.1,0.012589254117941666,0,0.7920574529998703
20,156,Control,0.0,0.25,0.01995262314968879,1,0.41325671799859265
20,157,Equal,0.1,0.1,0.025118864315095794,1,0.5726692910011479
20,158,Equal,0.25,0.25,0.025118864315095794,1,0.4719018949999736
20,159,Control_null,0.0,0.25,0.05011872336272722,1,0.4975734109993937
20,160,Equal,0.25,0.25,0.01995262314968879,1,0.46071451299940236
20,161,Control,0.0,0.25,0.015848931924611127,1,0.3737420990000828
20,162,Increase_null,0.1,0.25,0.05011872336272722,1,0.6410190269998566
20,163,Equal,0.25,0.25,0.015848931924611127,1,0.4121729050002614
20,164,Control,0.0,0.25,0.012589254117941666,1,0.5190200469987758
20,165,Decrease,0.25,0.1,0.015848931924611127,1,0.40255379999871366
20,166,Decrease,0.25,0.1,0.012589254117941666,0,0.6786893179996696
20,167,Increase,0.1,0.25,0.025118864315095794,1,0.5379110190006031
20,168,Control,0.0,0.1,0.01995262314968879,1,0.517428249000659
20,169,Increase,0.1,0.25,0.01995262314968879,1,0.45826162199955434
20,170,Equal,0.25,0.25,0.012589254117941666,1,0.8106189869995433
20,171,Equal,0.25,0.25,0.009999999999999995,0,0.749399567999717
20,172,Increase,0.1,0.25,0.015848931924611127,1,0.9108168379989365
20,173,Control,0.0,0.25,0.009999999999999995,0,0.6421149289999448
20,174,Equal,0.25,0.25,0.012589254117941666,0,0.5473060029999033
20,175,Equal,0.25,0.25,0.015848931924611127,1,0.44637994400000025
20,176,Equal,0.1,0.1,0.01995262314968879,1,1.2095156779996614
20,177,Increase,0.1,0.25,0.012589254117941666,1,0.4044536209985381
20,178,Increase,0.1,0.25,0.009999999999999995,1,0.4949882829987473
20,179,Increase,0.1,0.25,0.00794328234724281,1,0.547223343000951
20,180,Increase,0.1,0.25,0.0063095734448019285,0,0.4942259519993968
20,181,Control,0.0,0.1,0.015848931924611127,1,0.44185942900003283
20,182,Control,0.0,0.25,0.012589254117941666,1,0.48609131300145236
20,183,Decrease,0.25,0.1,0.015848931924611127,1,0.5655833969995001
20,184,Control,0.0,0.1,0.012589254117941666,0,0.4099782760004018
20,185,Equal,0.25,0.25,0.012589254117941666,0,0.578326302998903
20,186,Control,0.0,0.25,0.009999999999999995,0,0.6535438470000372
20,187,Control,0.0,0.25,0.012589254117941666,0,0.5102137270005187
20,188,Control,0.0,0.1,0.015848931924611127,1,0.5058003079993796
20,189,Decrease_null,0.25,0.1,0.05011872336272722,1,0.5008805079996819
20,190,Equal,0.1,0.1,0.015848931924611127,1,0.49715520000063407
20,191,Control,0.0,0.1,0.012589254117941666,0,0.5403996259992709
20,192,Control,0.0,0.1,0.015848931924611127,0,0.7276917470007902
20,193,Increase,0.1,0.25,0.00794328234724281,0,0.8905032389993721
20,194,Increase,0.1,0.25,0.009999999999999995,0,1.093909564000569
20,195,Decrease,0.25,0.1,0.012589254117941666,0,0.5472591559991997
20,196,Increase,0.1,0.25,0.012589254117941666,0,0.5792977770015568
20,197,Control_null,0.0,0.1,0.03981071705534971,1,0.47069559000010486
20,198,Increase,0.1,0.25,0.015848931924611127,0,0.15855498900054954
20,199,Increase,0.1,0.25,0.01995262314968879,0,0.7788169920004293
20,200,Control,0.0,0.25,0.015848931924611127,1,0.9640049909994559
20,201,Control,0.0,0.1,0.01995262314968879,1,0.5272458660001575
20,202,Equal,0.1,0.1,0.012589254117941666,0,0.6253634079985204
20,203,Equal,0.25,0.25,0.015848931924611127,1,0.7405991220002761
20,204,Decrease,0.25,0.1,0.015848931924611127,1,0.5354356409989123
20,205,Control,0.0,0.1,0.015848931924611127,1,0.5319519830009085
20,206,Equal_null,0.25,0.25,0.07943282347242815,1,0.612289900000178
20,207,Decrease,0.25,0.1,0.012589254117941666,0,0.5692795729992213
20,208,Control,0.0,0.1,0.012589254117941666,0,0.6615109859994845
20,209,Decrease,0.25,0.1,0.015848931924611127,1,0.3892762390005373
20,210,Decrease,0.25,0.1,0.012589254117941666,0,0.5285431820011581
20,211,Control,0.0,0.1,0.015848931924611127,1,0.7291897699997207
20,212,Control_null,0.0,0.1,0.031622776601683784,1,0.6213196520002384
20,213,Equal_null,0.1,0.1,0.05011872336272722,1,0.5425198009997985
20,214,Control,0.0,0.25,0.012589254117941666,0,0.6585619589986891
20,215,Control,0.0,0.25,0.015848931924611127,1,0.4459074980004516
20,216,Equal,0.25,0.25,0.012589254117941666,0,0.6170643210007256
20,217,Equal,0.1,0.1,0.015848931924611127,0,0.6442764250004984
20,218,Control,0.0,0.25,0.012589254117941666,0,0.7764867410005536
20,219,Equal,0.1,0.1,0.01995262314968879,1,0.5064665510017221
20,220,Equal,0.1,0.1,0.015848931924611127,1,0.4477299739992304
20,221,Decrease_null,0.25,0.1,0.03981071705534971,1,0.828314741000213
20,222,Increase,0.1,0.25,0.025118864315095794,1,0.5400739180004166
20,223,Increase,0.1,0.25,0.01995262314968879,1,0.6314335139995819
20,224,Control,0.0,0.1,0.012589254117941666,0,0.8395004399990285
20,225,Control,0.0,0.1,0.015848931924611127,1,0.5556196060006187
20,226,Decrease,0.25,0.1,0.015848931924611127,1,0.44590592599888623
20,227,Equal,0.25,0.25,0.015848931924611127,1,0.43308466100097576
20,228,Control,0.0,0.1,0.012589254117941666,0,0.5884173809990898
20,229,Equal,0.25,0.25,0.012589254117941666,0,0.7754417420001118
20,230,Equal,0.1,0.1,0.012589254117941666,0,0.5956944420013315
20,231,Equal,0.25,0.25,0.015848931924611127,1,0.36798974300108966
20,232,Decrease,0.25,0.1,0.012589254117941666,1,0.5382972509996762
20,233,Equal,0.25,0.25,0.012589254117941666,0,0.7582844419994217
20,234,Equal,0.25,0.25,0.015848931924611127,1,0.3613393699997687
20,235,Equal,0.25,0.25,0.012589254117941666,0,0.7055714720008837
20,236,Equal,0.25,0.25,0.015848931924611127,1,0.7336591399998724
20,237,Increase,0.1,0.25,0.015848931924611127,1,0.5726727549990756
20,238,Equal,0.1,0.1,0.015848931924611127,1,1.1839016869998886
20,239,Decrease,0.25,0.1,0.009999999999999995,0,0.4423670750002202
20,240,Increase_null,0.1,0.25,0.03981071705534971,1,0.49458450800011633
20,241,Equal,0.25,0.25,0.012589254117941666,1,0.39355097800034855
20,242,Control,0.0,0.1,0.015848931924611127,1,0.29872900000009395
20,243,Equal,0.25,0.25,0.009999999999999995,0,0.4858110810000653
20,244,Decrease,0.25,0.1,0.012589254117941666,0,0.5132386750010483
20,245,Decrease,0.25,0.1,0.015848931924611127,1,0.6044979849993979
20,246,Control,0.0,0.1,0.012589254117941666,0,0.49534254999889527
20,247,Equal,0.25,0.25,0.012589254117941666,0,0.5943870790015353
20,248,Decrease,0.25,0.1,0.012589254117941666,0,0.6392216370004462
20,249,Equal,0.25,0.25,0.015848931924611127,0,0.5395754599994689
20,250,Equal_null,0.1,0.1,0.03981071705534971,1,0.4395037020003656
20,251,Equal_null,0.1,0.1,0.031622776601683784,1,0.5364880529996299
20,252,Control,0.0,0.1,0.015848931924611127,0,0.5156315149997681
20,253,Control,0.0,0.25,0.015848931924611127,1,0.4998476170003414
20,254,Control,0.0,0.25,0.012589254117941666,0,0.6628398169996217
20,255,Increase,0.1,0.25,0.012589254117941666,0,0.42414222300067195
20,256,Equal,0.1,0.1,0.012589254117941666,0,0.6195155229997908
20,257,Control,0.0,0.1,0.01995262314968879,0,0.886436536000474
20,258,Equal,0.25,0.25,0.01995262314968879,0,0.8337305759996525
20,259,Control,0.0,0.25,0.015848931924611127,1,0.49333896200005256
20,260,Increase_null,0.1,0.25,0.031622776601683784,1,0.8482956489988283
20,261,Equal,0.1,0.1,0.015848931924611127,1,0.4595895019992895
20,262,Equal,0.1,0.1,0.012589254117941666,0,0.6726491729987174
20,263,Equal,0.1,0.1,0.015848931924611127,1,0.5087468759993499
20,264,Decrease,0.25,0.1,0.015848931924611127,1,0.42669158299941046
20,265,Equal,0.1,0.1,0.012589254117941666,0,0.6781568389997119
20,266,Equal,0.25,0.25,0.025118864315095794,1,0.4310621189997619
20,267,Control,0.0,0.25,0.012589254117941666,1,0.4184500610008399
20,268,Control,0.0,0.25,0.009999999999999995,0,0.8508510859992384
20,269,Increase,0.1,0.25,0.015848931924611127,1,0.2856172140000126
20,270,Decrease,0.25,0.1,0.012589254117941666,1,0.2888369079992117
20,271,Control,0.0,0.1,0.025118864315095794,1,0.3079804259996308
20,272,Control_null,0.0,0.25,0.03981071705534971,1,0.6712520780001796
20,273,Equal,0.1,0.1,0.015848931924611127,1,0.38644241800102463
20,274,Decrease_null,0.25,0.1,0.031622776601683784,1,0.7259308490010881
20,275,Equal,0.25,0.25,0.01995262314968879,0,0.6750497089997225
20,276,Control,0.0,0.25,0.012589254117941666,0,0.711495980998734
20,277,Increase_null,0.1,0.25,0.02511886431509579,1,0.705325269000241
20,278,Control_null,0.0,0.1,0.02511886431509579,1,0.37246819299980416
20,279,Decrease,0.25,0.1,0.009999999999999995,0,0.5966835290000745
20,280,Decrease,0.25,0.1,0.012589254117941666,0,0.591017610999188
20,281,Equal,0.1,0.1,0.012589254117941666,0,0.7678282729993953
20,282,Control,0.0,0.1,0.01995262314968879,1,0.5310526369994477
20,283,Equal,0.1,0.1,0.015848931924611127,1,0.5181406459996651
20,284,Equal,0.25,0.25,0.025118864315095794,1,0.3386286690001725
20,285,Decrease,0.25,0.1,0.015848931924611127,1,0.4378454990001046
20,286,Control,0.0,0.1,0.015848931924611127,1,0.5771409989993117
20,287,Equal_null,0.1,0.1,0.02511886431509579,1,0.580474647000301
20,288,Control_null,0.0,0.25,0.031622776601683784,1,0.5139115470010438
20,289,Increase,0.1,0.25,0.012589254117941666,0,0.5981424040001002
20,290,Equal,0.1,0.1,0.012589254117941666,0,0.7743290229991544
20,291,Decrease,0.25,0.1,0.012589254117941666,0,1.0096762280008988
20,292,Control,0.0,0.25,0.015848931924611127,1,0.338169624999864
20,293,Decrease,0.25,0.1,0.015848931924611127,1,0.3503419209991989
20,294,Decrease,0.25,0.1,0.012589254117941666,1,0.47817767200103845
20,295,Control_null,0.0,0.25,0.02511886431509579,1,0.5065293120005663
20,296,Increase,0.1,0.25,0.015848931924611127,1,0.7260205469992798
20,297,Control_null,0.0,0.25,0.01995262314968879,1,0.6331399889986642
20,298,Decrease_null,0.25,0.1,0.02511886431509579,1,0.4683900520012685
20,299,Control,0.0,0.1,0.012589254117941666,0,99
20,300,Decrease,0.25,0.1,0.009999999999999995,0,0.48948275099974126
20,301,Increase_null,0.1,0.25,0.01995262314968879,1,0.26253126399933535
20,302,Control,0.0,0.25,0.012589254117941666,0,0.2749847499999305
20,303,Control,0.0,0.1,0.015848931924611127,1,0.36295410200000333
20,304,Equal,0.1,0.1,0.015848931924611127,1,0.3740001289988868
20,305,Control,0.0,0.1,0.012589254117941666,1,0.36651111600076547
20,306,Equal,0.1,0.1,0.012589254117941666,1,0.31372384700080147
20,307,Decrease,0.25,0.1,0.012589254117941666,1,0.34786434499983443
20,308,Equal,0.1,0.1,0.009999999999999995,1,0.7032111389999045
20,309,Decrease,0.25,0.1,0.009999999999999995,1,0.6583795169990481
20,310,Control,0.0,0.1,0.009999999999999995,0,0.5255028289993788
20,311,Control_null,0.0,0.25,0.015848931924611127,1,0.5607123230001889
20,312,Increase,0.1,0.25,0.012589254117941666,0,0.5478473849998409
20,313,Control,0.0,0.25,0.015848931924611127,1,0.3924227570005314
20,314,Control,0.0,0.25,0.012589254117941666,0,0.60463898099988
20,315,Increase,0.1,0.25,0.015848931924611127,0,0.7539733809990139
20,316,Control,0.0,0.1,0.012589254117941666,0,0.6175160829989181
20,317,Increase,0.1,0.25,0.01995262314968879,1,0.44442126200010534
20,318,Increase_null,0.1,0.25,0.015848931924611127,1,0.6048055190003652
20,319,Increase,0.1,0.25,0.015848931924611127,1,0.45608959299897833
20,320,Equal_null,0.1,0.1,0.01995262314968879,1,0.6662051040002552
20,321,Equal,0.25,0.25,0.01995262314968879,1,0.3785621989991341
20,322,Equal,0.25,0.25,0.015848931924611127,1,0.31751343500036455
20,323,Equal_null,0.1,0.1,0.015848931924611127,1,0.49773202300093544
20,324,Equal_null,0.1,0.1,0.012589254117941666,1,0.41312323700003617
20,325,Control,0.0,0.1,0.015848931924611127,1,0.4482988279996789
20,326,Control_null,0.0,0.1,0.01995262314968879,1,0.5624443710003106
20,327,Equal,0.25,0.25,0.012589254117941666,0,0.48786120699878666
20,328,Control,0.0,0.1,0.012589254117941666,1,0.34773146899897256
20,329,Equal,0.25,0.25,0.015848931924611127,1,0.4508257189991127
20,330,Decrease,0.25,0.1,0.00794328234724281,0,0.4221718439985125
20,331,Equal,0.1,0.1,0.00794328234724281,0,0.4471507849993941
20,332,Equal,0.1,0.1,0.009999999999999995,0,0.5783914019993972
20,333,Equal,0.1,0.1,0.012589254117941666,0,0.44338291800158913
20,334,Equal,0.1,0.1,0.015848931924611127,1,0.3761189020005986
20,335,Equal,0.1,0.1,0.012589254117941666,1,0.4911607889989682
20,336,Control,0.0,0.1,0.009999999999999995,1,0.4222557089997281
20,337,Control,0.0,0.1,0.00794328234724281,0,0.47331448499971884
20,338,Control,0.0,0.1,0.009999999999999995,0,0.5644624990000011
20,339,Decrease,0.25,0.1,0.009999999999999995,0,0.5590710320011567
20,340,Equal,0.1,0.1,0.009999999999999995,1,0.3229322970000794
20,341,Control,0.0,0.1,0.012589254117941666,1,0.5792622820008546
20,342,Control,0.0,0.1,0.009999999999999995,1,0.5753537569999025
20,343,Equal,0.25,0.25,0.012589254117941666,0,0.4344761579995975
20,344,Control,0.0,0.1,0.00794328234724281,0,0.5868032189991936
20,345,Equal,0.1,0.1,0.00794328234724281,1,0.421848718999172
20,346,Increase,0.1,0.25,0.012589254117941666,0,0.6558945329998096
20,347,Control_null,0.0,0.25,0.012589254117941666,1,0.49926550800046243
20,348,Equal_null,0.25,0.25,0.06309573444801932,1,0.5583426600005623
20,349,Equal,0.25,0.25,0.015848931924611127,1,0.377517214999898
20,350,Control,0.0,0.1,0.009999999999999995,0,0.556784656999298
20,351,Equal,0.25,0.25,0.012589254117941666,1,0.44773392299975967
20,352,Decrease,0.25,0.1,0.012589254117941666,0,0.5301282159998664
20,353,Increase,0.1,0.25,0.015848931924611127,1,0.31720299500011606
20,354,Equal,0.1,0.1,0.0063095734448019285,0,0.5666000680012075
20,355,Equal_null,0.1,0.1,0.009999999999999995,1,0.44176981700002216
20,356,Equal,0.1,0.1,0.00794328234724281,0,0.6532705130011891
20,357,Control,0.0,0.1,0.012589254117941666,0,0.5972533730000578
20,358,Equal,0.25,0.25,0.009999999999999995,0,0.48820951900052023
20,359,Control,0.0,0.25,0.015848931924611127,1,0.514652918000138
20,360,Increase,0.1,0.25,0.012589254117941666,0,0.8964859150000848
20,361,Equal,0.1,0.1,0.009999999999999995,1,0.37156040700028825
20,362,Equal,0.25,0.25,0.012589254117941666,0,0.6023449519998394
20,363,Control,0.0,0.25,0.012589254117941666,0,0.5025752849996934
20,364,Control,0.0,0.1,0.015848931924611127,1,0.4002689200005989
20,365,Equal,0.1,0.1,0.00794328234724281,0,0.48338492099901487
20,366,Increase,0.1,0.25,0.015848931924611127,1,0.2834891919992515
20,367,Equal,0.25,0.25,0.015848931924611127,1,0.4147075099990616
20,368,Control,0.0,0.1,0.012589254117941666,0,0.5040746369995759
20,369,Equal,0.1,0.1,0.009999999999999995,0,0.6829708750010468
20,370,Control,0.0,0.1,0.015848931924611127,1,0.3503771070008952
20,371,Equal,0.1,0.1,0.012589254117941666,0,0.5362442240002565
20,372,Control,0.0,0.25,0.015848931924611127,0,0.4674894969994057
20,373,Control_null,0.0,0.1,0.015848931924611127,1,0.4240610609995201
20,374,Equal,0.25,0.25,0.012589254117941666,0,0.5230367820004176
20,375,Equal,0.1,0.1,0.015848931924611127,1,0.3273192200013
20,376,Equal,0.25,0.25,0.015848931924611127,1,0.34897769400049583
20,377,Equal,0.25,0.25,0.012589254117941666,0,0.589415114998701
20,378,Equal,0.1,0.1,0.012589254117941666,1,0.5906463049996091
20,379,Decrease,0.25,0.1,0.015848931924611127,1,0.34284400700016704
20,380,Control,0.0,0.25,0.01995262314968879,1,0.29888713199943595
20,381,Equal,0.25,0.25,0.015848931924611127,1,0.3473526870002388
20,382,Equal,0.25,0.25,0.012589254117941666,1,0.7586950000004435
20,383,Decrease_null,0.25,0.1,0.01995262314968879,1,0.6574585069993191
20,384,Control,0.0,0.1,0.012589254117941666,0,0.5404726439992373
20,385,Decrease,0.25,0.1,0.012589254117941666,0,0.6239767330007453
20,386,Control,0.0,0.1,0.015848931924611127,1,0.33927300899995316
20,387,Equal,0.1,0.1,0.009999999999999995,0,0.41439304100094887
20,388,Decrease_null,0.25,0.1,0.015848931924611127,1,0.5001649829991948
20,389,Equal,0.25,0.25,0.009999999999999995,0,0.4650702819999424
20,390,Control,0.0,0.25,0.015848931924611127,1,0.738027699999293
20,391,Equal,0.1,0.1,0.012589254117941666,1,0.47760470700086444
20,392,Decrease,0.25,0.1,0.015848931924611127,1,0.3503219869999157
20,393,Equal,0.25,0.25,0.012589254117941666,0,0.7935915409998415
20,394,Equal,0.25,0.25,0.015848931924611127,1,0.4336070909994305
20,395,Increase,0.1,0.25,0.012589254117941666,0,0.8928131199991185
20,396,Decrease,0.25,0.1,0.012589254117941666,1,0.7519932159993914
20,397,Control,0.0,0.1,0.012589254117941666,0,0.5470535980002751
20,398,Control,0.0,0.25,0.012589254117941666,0,0.44617300699974294
20,399,Decrease,0.25,0.1,0.009999999999999995,0,0.44978412599994044
20,400,Decrease,0.25,0.1,0.012589254117941666,0,0.558050796000316
20,401,Control,0.0,0.1,0.015848931924611127,1,0.5213812630008761
20,402,Control,0.0,0.25,0.015848931924611127,1,0.36629793800057087
20,403,Decrease,0.25,0.1,0.015848931924611127,1,0.5035929950008722
20,404,Control,0.0,0.1,0.012589254117941666,1,0.594606341999679
20,405,Control,0.0,0.1,0.009999999999999995,1,0.4504622830008884
20,406,Equal,0.25,0.25,0.012589254117941666,0,0.6138699460007047
20,407,Increase,0.1,0.25,0.015848931924611127,1,0.5109888759998285
20,408,Control,0.0,0.25,0.012589254117941666,0,0.7463854109992099
20,409,Equal,0.1,0.1,0.009999999999999995,0,0.5333253970002261
20,410,Decrease_null,0.25,0.1,0.012589254117941666,1,0.44858050100083346
20,411,Control,0.0,0.1,0.00794328234724281,0,0.7319195689997287
20,412,Equal,0.25,0.25,0.015848931924611127,1,0.3832030819994543
20,413,Equal,0.25,0.25,0.012589254117941666,0,0.4592619189988909
20,414,Equal,0.25,0.25,0.015848931924611127,1,0.3117427039996983
20,415,Equal,0.25,0.25,0.012589254117941666,1,0.4038461419986561
20,416,Control_null,0.0,0.1,0.012589254117941666,1,0.5729554870013089
20,417,Control_null,0.0,0.25,0.009999999999999995,1,0.5918919859996095
20,418,Control,0.0,0.1,0.009999999999999995,0,0.665194065999458
20,419,Decrease_null,0.25,0.1,0.009999999999999995,1,0.5634754790007719
20,420,Control,0.0,0.25,0.015848931924611127,1,0.41256287900068855
20,421,Control,0.0,0.1,0.012589254117941666,0,0.3997860719991877
20,422,Control,0.0,0.1,0.015848931924611127,1,0.5151279449983122
20,423,Increase_null,0.1,0.25,0.012589254117941666,1,0.542232003999743
20,424,Control,0.0,0.25,0.012589254117941666,0,0.6734221060014534
20,425,Equal,0.25,0.25,0.009999999999999995,0,0.5482173029995465
20,426,Increase,0.1,0.25,0.012589254117941666,0,0.7278122950010584
20,427,Increase,0.1,0.25,0.015848931924611127,1,0.476707271000123
20,428,Equal,0.1,0.1,0.012589254117941666,0,0.4723195040005521
20,429,Control,0.0,0.1,0.012589254117941666,0,0.6809715359995607
20,430,Control,0.0,0.1,0.015848931924611127,1,0.5563386470003024
20,431,Control,0.0,0.25,0.015848931924611127,1,0.4694181140002911
20,432,Increase,0.1,0.25,0.012589254117941666,0,0.528744856999765
20,433,Equal,0.1,0.1,0.015848931924611127,1,0.33707584900002985
20,434,Decrease,0.25,0.1,0.012589254117941666,0,0.6612420110013773
20,435,Control,0.0,0.25,0.012589254117941666,1,0.5662884809989919
20,436,Control,0.0,0.1,0.012589254117941666,0,0.6106569220009987
20,437,Control,0.0,0.25,0.009999999999999995,1,0.885762120000436
20,438,Equal,0.1,0.1,0.012589254117941666,1,0.4090412670011574
20,439,Control,0.0,0.25,0.00794328234724281,0,0.5002004689995374
20,440,Control,0.0,0.1,0.015848931924611127,1,0.4954576800009818
20,441,Control,0.0,0.25,0.009999999999999995,0,0.5419533849999425
20,442,Increase,0.1,0.25,0.015848931924611127,0,0.8057872549998137
20,443,Increase,0.1,0.25,0.01995262314968879,1,0.6086449510003149
20,444,Control_null,0.0,0.1,0.009999999999999995,1,0.5540803280000546
20,445,Equal,0.25,0.25,0.012589254117941666,0,0.5172757710006408
20,446,Increase_null,0.1,0.25,0.009999999999999995,1,0.7345017089992325
20,447,Equal,0.1,0.1,0.009999999999999995,1,0.7137032259997795
20,448,Increase,0.1,0.25,0.015848931924611127,1,0.42084762299964495
20,449,Decrease,0.25,0.1,0.015848931924611127,1,0.39096543899904646
20,450,Equal,0.1,0.1,0.00794328234724281,0,0.6192209030014055
20,451,Decrease,0.25,0.1,0.012589254117941666,0,0.48558821999904467
20,452,Increase,0.1,0.25,0.012589254117941666,1,0.7844898429993918
20,453,Decrease,0.25,0.1,0.015848931924611127,1,0.30792160000055446
20,454,Increase_null,0.1,0.25,0.00794328234724281,1,0.6024969249992864
20,455,Equal,0.25,0.25,0.015848931924611127,1,0.530000733999259
20,456,Decrease_null,0.25,0.1,0.00794328234724281,1,0.46904867599914724
20,457,Control,0.0,0.1,0.012589254117941666,0,0.7095672499999637
20,458,Equal,0.25,0.25,0.012589254117941666,0,0.6897064309996495
20,459,Equal,0.1,0.1,0.009999999999999995,0,0.6267277650003962
20,460,Control,0.0,0.25,0.012589254117941666,0,0.5820413530000224
20,461,Decrease,0.25,0.1,0.012589254117941666,1,0.44125793900093413
20,462,Equal,0.1,0.1,0.012589254117941666,0,1.0525521999988996
20,463,Control,0.0,0.1,0.015848931924611127,1,0.4166557240005204
20,464,Equal_null,0.1,0.1,0.00794328234724281,1,0.7397672570004943
20,465,Increase,0.1,0.25,0.009999999999999995,0,0.7349835069999244
20,466,Increase,0.1,0.25,0.012589254117941666,0,0.7781523630001175
20,467,Control,0.0,0.1,0.012589254117941666,1,0.45464552200064645
20,468,Equal,0.25,0.25,0.015848931924611127,1,0.4063029050012119
20,469,Equal,0.25,0.25,0.012589254117941666,0,0.6017875380002806
20,470,Decrease,0.25,0.1,0.009999999999999995,0,0.5218190110008436
20,471,Increase,0.1,0.25,0.015848931924611127,1,0.3500372050002625
20,472,Increase,0.1,0.25,0.012589254117941666,0,0.6313095599998633
20,473,Decrease,0.25,0.1,0.012589254117941666,0,0.6984654919997411
20,474,Equal,0.25,0.25,0.015848931924611127,1,0.38967689300079655
20,475,Control,0.0,0.25,0.015848931924611127,1,0.3138926060000813
20,476,Equal,0.25,0.25,0.012589254117941666,1,0.5081664119989
20,477,Control,0.0,0.1,0.009999999999999995,0,0.5033618500001467
20,478,Increase,0.1,0.25,0.015848931924611127,1,0.30646148800042283
20,479,Increase,0.1,0.25,0.012589254117941666,0,1.0696937080010684
20,480,Equal,0.25,0.25,0.009999999999999995,0,0.40033500400022604
20,481,Decrease,0.25,0.1,0.015848931924611127,1,0.41127518199937185
20,482,Equal,0.1,0.1,0.015848931924611127,1,0.46272296299866866
20,483,Decrease,0.25,0.1,0.012589254117941666,0,0.48976149700138194
20,484,Equal,0.1,0.1,0.012589254117941666,0,0.525077832999159
20,485,Equal_null,0.1,0.1,0.0063095734448019285,1,0.45644612400064943
20,486,Control,0.0,0.25,0.012589254117941666,0,0.8435244079992117
20,487,Equal,0.1,0.1,0.015848931924611127,1,0.35324184199998854
20,488,Equal,0.25,0.25,0.012589254117941666,1,0.5103657269992254
20,489,Control,0.0,0.1,0.012589254117941666,0,0.42187695800021174
20,490,Equal,0.25,0.25,0.009999999999999995,0,0.40946492399962153
20,491,Decrease,0.25,0.1,0.015848931924611127,1,0.34638721000010264
20,492,Decrease,0.25,0.1,0.012589254117941666,0,0.4698157149996405
20,493,Equal,0.25,0.25,0.012589254117941666,0,0.5397472740005469
20,494,Control,0.0,0.25,0.015848931924611127,1,0.5991787719995045
20,495,Control,0.0,0.1,0.015848931924611127,1,0.6032677019993571
20,496,Increase,0.1,0.25,0.015848931924611127,1,0.5104654790011409
20,497,Equal,0.25,0.25,0.015848931924611127,1,0.5375521860005392
20,498,Decrease,0.25,0.1,0.015848931924611127,1,0.5075995070001227
20,499,Equal,0.25,0.25,0.012589254117941666,0,0.4480528570002207
20,500,Control,0.0,0.25,0.012589254117941666,0,0.5314213179990475
20,501,Equal,0.1,0.1,0.012589254117941666,0,0.5687010560013732
20,502,Control,0.0,0.1,0.012589254117941666,0,0.47239361599895346
20,503,Increase,0.1,0.25,0.012589254117941666,0,0.596684277001259
20,504,Increase,0.1,0.25,0.015848931924611127,1,0.4051360960002057
20,505,Control,0.0,0.1,0.015848931924611127,1,0.38384407599914994
20,506,Control,0.0,0.25,0.015848931924611127,0,0.43328407499939203
20,507,Decrease,0.25,0.1,0.012589254117941666,0,0.6445493989995157
20,508,Increase,0.1,0.25,0.012589254117941666,1,0.6478963629997452
20,509,Control,0.0,0.1,0.012589254117941666,0,0.46705573799954436
20,510,Decrease,0.25,0.1,0.015848931924611127,1,0.47766326800046954
20,511,Equal,0.25,0.25,0.015848931924611127,1,0.4489840969999932
20,512,Control,0.0,0.1,0.015848931924611127,1,0.4524821750001138
20,513,Control,0.0,0.25,0.01995262314968879,0,0.5527032800000597
20,514,Control,0.0,0.1,0.012589254117941666,0,0.5982812720012589
20,515,Control,0.0,0.1,0.015848931924611127,1,0.31916279799952463
20,516,Increase,0.1,0.25,0.009999999999999995,0,0.49814222900022287
20,517,Control,0.0,0.1,0.012589254117941666,1,0.45036566400085576
20,518,Equal,0.25,0.25,0.012589254117941666,0,0.4695542299996305
20,519,Control,0.0,0.1,0.009999999999999995,0,0.47065093600031105
20,520,Increase,0.1,0.25,0.012589254117941666,0,0.4817510319990106
20,521,Control,0.0,0.1,0.012589254117941666,0,0.604910944999574
20,522,Equal,0.1,0.1,0.015848931924611127,1,0.4402568629993766
20,523,Increase_null,0.1,0.25,0.0063095734448019285,1,0.44463543299934827
20,524,Increase,0.1,0.25,0.015848931924611127,1,0.4398448259998986
20,525,Decrease_null,0.25,0.1,0.0063095734448019285,1,0.5700878830011789
20,526,Equal,0.1,0.1,0.012589254117941666,0,0.7100792389992421
20,527,Control,0.0,0.1,0.015848931924611127,1,0.44999224899947876
20,528,Equal,0.25,0.25,0.015848931924611127,1,0.30769940599930123
20,529,Control,0.0,0.25,0.025118864315095794,1,0.31059788499987917
20,530,Equal_null,0.1,0.1,0.005011872336272719,1,0.40659675099959713
20,531,Equal,0.25,0.25,0.012589254117941666,0,0.5060596250004892
20,532,Control,0.0,0.1,0.012589254117941666,0,0.4111644749991683
20,533,Control,0.0,0.1,0.015848931924611127,1,0.3583464390012523
20,534,Equal,0.1,0.1,0.015848931924611127,0,0.7867462849990261
20,535,Equal,0.25,0.25,0.015848931924611127,1,0.3337191939990589
20,536,Equal,0.25,0.25,0.012589254117941666,1,0.6092321889991581
20,537,Control,0.0,0.25,0.01995262314968879,1,0.3803585230016324
20,538,Equal,0.25,0.25,0.009999999999999995,1,0.5432592839988502
20,539,Increase,0.1,0.25,0.012589254117941666,0,0.6445166329995118
20,540,Equal_null,0.25,0.25,0.05011872336272722,1,0.6572705899998255
20,541,Control,0.0,0.25,0.015848931924611127,1,0.48105038100038655
20,542,Control_null,0.0,0.1,0.00794328234724281,1,0.5722043550013041
20,543,Increase,0.1,0.25,0.015848931924611127,1,0.41331528200134926
20,544,Decrease_null,0.25,0.1,0.005011872336272719,1,0.42461379099950136
20,545,Equal,0.25,0.25,0.00794328234724281,1,0.32167117500102904
20,546,Decrease,0.25,0.1,0.012589254117941666,0,0.556931925999379
20,547,Increase,0.1,0.25,0.012589254117941666,0,0.45564523600114626
20,548,Control,0.0,0.1,0.012589254117941666,0,0.8742374779994861
20,549,Control,0.0,0.25,0.012589254117941666,0,0.6144709309992322
20,550,Control,0.0,0.25,0.015848931924611127,1,0.3982963420003216
20,551,Control_null,0.0,0.1,0.0063095734448019285,1,0.5938932969984307
20,552,Equal,0.1,0.1,0.01995262314968879,1,0.37430388999928255
20,553,Decrease,0.25,0.1,0.015848931924611127,1,0.44127335300072446
20,554,Decrease,0.25,0.1,0.012589254117941666,0,0.4493460599987884
20,555,Equal,0.1,0.1,0.015848931924611127,1,0.29244767100135505
20,556,Control,0.0,0.25,0.012589254117941666,1,0.5724739220004267
20,557,Control,0.0,0.1,0.015848931924611127,1,0.38372547299877624
20,558,Equal_null,0.25,0.25,0.03981071705534971,1,0.5859172550008225
20,559,Equal,0.1,0.1,0.012589254117941666,0,0.7809769739997137
20,560,Increase,0.1,0.25,0.015848931924611127,1,0.3044610759989155
20,561,Equal,0.1,0.1,0.015848931924611127,1,0.4757113229989045
20,562,Equal,0.1,0.1,0.012589254117941666,0,0.47999790600078995
20,563,Control,0.0,0.1,0.012589254117941666,0,0.6441494139999122
20,564,Control_null,0.0,0.1,0.005011872336272719,1,0.5282814980000694
20,565,Control,0.0,0.1,0.015848931924611127,1,0.38651424999989104
20,566,Equal,0.25,0.25,0.0063095734448019285,0,0.4478170769998542
20,567,Decrease,0.25,0.1,0.015848931924611127,1,0.31175974600046175
20,568,Control,0.0,0.25,0.009999999999999995,0,0.714939546000096
20,569,Control_null,0.0,0.25,0.00794328234724281,1,0.563402715999473
20,570,Increase,0.1,0.25,0.012589254117941666,0,0.8792025380007544
20,571,Increase,0.1,0.25,0.015848931924611127,1,0.392161916999612
20,572,Equal,0.25,0.25,0.00794328234724281,0,0.5473776060007367
20,573,Control,0.0,0.25,0.012589254117941666,0,0.47197077500095475
20,574,Control,0.0,0.25,0.015848931924611127,1,0.36328338000021176
20,575,Control,0.0,0.1,0.012589254117941666,0,0.9022652820003714
20,576,Increase,0.1,0.25,0.012589254117941666,0,0.490432251999664
20,577,Decrease,0.25,0.1,0.012589254117941666,1,0.3435726110001269
20,578,Equal,0.1,0.1,0.015848931924611127,1,0.44174283199936326
20,579,Equal,0.25,0.25,0.009999999999999995,1,0.4615245839995623
20,580,Equal,0.25,0.25,0.00794328234724281,0,0.453006292000282
20,581,Control,0.0,0.25,0.012589254117941666,0,0.52917738799988
20,582,Control_null,0.0,0.25,0.0063095734448019285,1,0.6815429590005806
20,583,Decrease,0.25,0.1,0.009999999999999995,1,0.33197706200007815
20,584,Decrease,0.25,0.1,0.00794328234724281,0,0.5988471640011994
20,585,Control,0.0,0.25,0.015848931924611127,1,0.5060164499991515
20,586,Equal_null,0.25,0.25,0.031622776601683784,1,0.49318427400066867
20,587,Equal,0.1,0.1,0.012589254117941666,0,0.8244364559996029
20,588,Increase_null,0.1,0.25,0.005011872336272719,1,0.5006390130001819
20,589,Control,0.0,0.25,0.012589254117941666,1,0.7769842119996611
20,590,Control,0.0,0.25,0.009999999999999995,0,0.4609065789991291
20,591,Decrease,0.25,0.1,0.009999999999999995,0,0.6622843619988998
20,592,Control,0.0,0.1,0.015848931924611127,1,0.418565051000769
20,593,Increase,0.1,0.25,0.015848931924611127,1,0.46650582599977497
20,594,Equal,0.1,0.1,0.015848931924611127,1,0.32547109500046645
20,595,Equal,0.1,0.1,0.012589254117941666,1,0.7417994869992981
20,596,Equal,0.25,0.25,0.009999999999999995,1,0.6261365129994374
20,597,Decrease,0.25,0.1,0.012589254117941666,0,0.5804304319990479
20,598,Increase,0.1,0.25,0.012589254117941666,0,0.6065061479985161
20,599,Increase,0.1,0.25,0.015848931924611127,0,0.6657611039991025
20,600,Equal,0.25,0.25,0.00794328234724281,1,0.3503567900006601
20,601,Control,0.0,0.1,0.012589254117941666,0,0.27516232400012086
20,602,Equal,0.1,0.1,0.009999999999999995,0,0.3324699969998619
20,603,Control,0.0,0.1,0.015848931924611127,1,0.38380085500102723
20,604,Equal,0.1,0.1,0.012589254117941666,1,0.36786673400092695
20,605,Control,0.0,0.25,0.012589254117941666,0,0.45098477999999886
20,606,Equal,0.25,0.25,0.0063095734448019285,0,0.4273983590010175
20,607,Control,0.0,0.25,0.015848931924611127,1,0.38951472400003695
20,608,Control,0.0,0.1,0.012589254117941666,1,0.7606742910011235
20,609,Equal_null,0.25,0.25,0.02511886431509579,1,0.4596667420009908
20,610,Equal,0.1,0.1,0.009999999999999995,0,0.5906906349991914
20,611,Equal,0.25,0.25,0.00794328234724281,0,0.6738860140012548
20,612,Equal_null,0.25,0.25,0.01995262314968879,1,0.46164284299993597
20,613,Decrease,0.25,0.1,0.015848931924611127,1,0.32214211900100054
20,614,Decrease,0.25,0.1,0.012589254117941666,0,0.44695381999918027
20,615,Increase,0.1,0.25,0.01995262314968879,1,0.7519187639991287
20,616,Control,0.0,0.1,0.009999999999999995,0,0.4587057539993111
20,617,Control,0.0,0.25,0.012589254117941666,0,0.5872578559992689
20,618,Control,0.0,0.1,0.012589254117941666,0,0.46257972399871505
20,619,Decrease,0.25,0.1,0.015848931924611127,1,0.694982656999855
20,620,Decrease,0.25,0.1,0.012589254117941666,0,0.5225664080007846
20,621,Increase,0.1,0.25,0.015848931924611127,1,0.41386545700152055
20,622,Equal,0.1,0.1,0.012589254117941666,0,0.5210514639984467
20,623,Decrease,0.25,0.1,0.015848931924611127,1,0.5323291620006785
20,624,Control,0.0,0.25,0.015848931924611127,1,0.5834962009994342
20,625,Control,0.0,0.25,0.012589254117941666,0,0.4668256790009764
20,626,Control,0.0,0.1,0.015848931924611127,1,0.4071432949986047
20,627,Equal_null,0.25,0.25,0.015848931924611127,1,0.5966383140003018
20,628,Decrease,0.25,0.1,0.012589254117941666,0,0.4053435480000189
20,629,Equal,0.1,0.1,0.015848931924611127,0,0.568620923000708
20,630,Increase,0.1,0.25,0.012589254117941666,0,0.7686455929997464
20,631,Increase,0.1,0.25,0.015848931924611127,1,0.3157969139992929
20,632,Equal,0.1,0.1,0.01995262314968879,1,0.38887561800038384
20,633,Decrease,0.25,0.1,0.015848931924611127,1,0.3841899029994238
20,634,Increase,0.1,0.25,0.012589254117941666,0,0.5636091439992015
20,635,Equal,0.1,0.1,0.015848931924611127,1,0.37449412000023585
20,636,Equal,0.25,0.25,0.009999999999999995,0,0.48985838199951104
20,637,Increase,0.1,0.25,0.015848931924611127,1,0.29389344999981404
20,638,Control,0.0,0.25,0.015848931924611127,1,0.36930133500027296
20,639,Equal,0.25,0.25,0.012589254117941666,0,0.582179149001604
20,640,Control,0.0,0.25,0.012589254117941666,1,0.5057453190001979
20,641,Increase,0.1,0.25,0.012589254117941666,0,0.41861476300073264
20,642,Increase,0.1,0.25,0.015848931924611127,1,0.485645710999961
20,643,Increase,0.1,0.25,0.012589254117941666,0,0.438110440998571
20,644,Decrease,0.25,0.1,0.012589254117941666,1,0.5773875429986219
20,645,Equal,0.25,0.25,0.015848931924611127,1,0.3385111539992067
20,646,Decrease,0.25,0.1,0.009999999999999995,0,0.3826433949998318
20,647,Decrease,0.25,0.1,0.012589254117941666,0,0.5059357500012993
20,648,Control_null,0.0,0.25,0.005011872336272719,1,0.5492418899993936
20,649,Equal_null,0.25,0.25,0.012589254117941666,1,0.3841764749995491
20,650,Equal,0.1,0.1,0.012589254117941666,1,0.4033761549999326
20,651,Equal,0.25,0.25,0.012589254117941666,1,0.6225718309997319
20,652,Increase,0.1,0.25,0.015848931924611127,1,0.4033916420012247
20,653,Equal,0.25,0.25,0.009999999999999995,0,0.5123958789990866
20,654,Decrease,0.25,0.1,0.015848931924611127,1,0.32005712399950426
20,655,Decrease,0.25,0.1,0.012589254117941666,0,0.5232088800003112
20,656,Equal,0.1,0.1,0.009999999999999995,1,0.3805561979988852
20,657,Control,0.0,0.1,0.012589254117941666,0,0.4078017810006713
20,658,Control,0.0,0.25,0.009999999999999995,0,0.5768078860000969
20,659,Control,0.0,0.25,0.012589254117941666,0,0.8040760949988908
20,660,Decrease,0.25,0.1,0.015848931924611127,1,0.9262461929993151
20,661,Equal,0.25,0.25,0.012589254117941666,0,0.47446223699989787
20,662,Equal,0.1,0.1,0.00794328234724281,0,0.40566851800031145
20,663,Control,0.0,0.1,0.015848931924611127,1,0.35287615900051605
20,664,Equal,0.1,0.1,0.009999999999999995,0,0.5400697999994009
20,665,Decrease,0.25,0.1,0.012589254117941666,0,0.5590209509991837
20,666,Control,0.0,0.25,0.015848931924611127,1,0.32502743899931374
20,667,Increase,0.1,0.25,0.012589254117941666,0,0.5323131019995344
20,668,Control,0.0,0.1,0.012589254117941666,0,0.46368953499950294
20,669,Equal,0.25,0.25,0.015848931924611127,1,0.2809107920002134
20,670,Control,0.0,0.1,0.015848931924611127,1,0.3082791790002375
20,671,Equal,0.25,0.25,0.012589254117941666,1,0.46932866600036505
20,672,Control,0.0,0.1,0.012589254117941666,0,0.5041603249992477
20,673,Equal,0.1,0.1,0.012589254117941666,0,0.44379842700072913
20,674,Control,0.0,0.25,0.012589254117941666,0,0.40680078600053093
20,675,Equal,0.1,0.1,0.015848931924611127,1,0.33803598300073645
20,676,Control,0.0,0.25,0.015848931924611127,1,0.29321557299954293
20,677,Control,0.0,0.1,0.015848931924611127,0,0.4645987439998862
20,678,Equal,0.1,0.1,0.012589254117941666,0,0.4929336349996447
20,679,Decrease,0.25,0.1,0.015848931924611127,1,0.3294490339994809
20,680,Control,0.0,0.1,0.01995262314968879,1,0.36890842100001464
20,681,Equal,0.1,0.1,0.015848931924611127,1,0.2601231270000426
20,682,Control,0.0,0.1,0.015848931924611127,1,0.35732873499910056
20,683,Equal,0.1,0.1,0.012589254117941666,0,0.5126963599996088
20,684,Control,0.0,0.1,0.012589254117941666,1,0.4339105840008415
20,685,Decrease,0.25,0.1,0.012589254117941666,0,0.5488492679996853
20,686,Equal,0.25,0.25,0.009999999999999995,1,0.4732136229995376
20,687,Equal,0.1,0.1,0.015848931924611127,0,0.3804354370004148
20,688,Equal_null,0.25,0.25,0.009999999999999995,1,0.4316095909998694
20,689,Equal,0.1,0.1,0.01995262314968879,0,0.7147969249999733
20,690,Decrease,0.25,0.1,0.015848931924611127,1,0.582924334999916
20,691,Equal_null,0.25,0.25,0.00794328234724281,1,0.7066167670000141
20,692,Control,0.0,0.25,0.012589254117941666,0,0.5331058079991635
20,693,Control,0.0,0.25,0.015848931924611127,1,0.25327187799848616
20,694,Control,0.0,0.25,0.012589254117941666,0,0.5206405070002802
20,695,Control,0.0,0.25,0.015848931924611127,1,0.32185269899855484
20,696,Control,0.0,0.25,0.012589254117941666,0,0.4522743880006601
20,697,Equal_null,0.25,0.25,0.0063095734448019285,1,0.5022693219998473
20,698,Increase,0.1,0.25,0.015848931924611127,1,0.4975321889996849
20,699,Increase,0.1,0.25,0.012589254117941666,1,0.6286286730010033
20,700,Equal,0.25,0.25,0.00794328234724281,0,0.5838628229994356
20,701,Control,0.0,0.25,0.015848931924611127,1,0.34711154400065425
20,702,Control,0.0,0.1,0.009999999999999995,0,0.583741653999823
20,703,Control,0.0,0.25,0.012589254117941666,0,0.5556428870004311
20,704,Equal,0.1,0.1,0.025118864315095794,1,0.39661305300069216
20,705,Decrease,0.25,0.1,0.012589254117941666,0,0.5044842709994555
20,706,Equal,0.25,0.25,0.009999999999999995,1,0.3939424500003952
20,707,Equal,0.25,0.25,0.00794328234724281,0,0.6452039609994245
20,708,Decrease,0.25,0.1,0.015848931924611127,0,0.5498155009991024
20,709,Equal,0.1,0.1,0.01995262314968879,0,0.7364571130001423
20,710,Control,0.0,0.25,0.015848931924611127,1,0.33025035399987246
20,711,Increase,0.1,0.25,0.009999999999999995,1,0.3576374379990739
20,712,Control,0.0,0.1,0.012589254117941666,0,0.7929730659998313
20,713,Decrease,0.25,0.1,0.01995262314968879,1,0.34948133699981554
20,714,Decrease,0.25,0.1,0.015848931924611127,1,0.5457051659996068
20,715,Decrease,0.25,0.1,0.012589254117941666,1,0.7984583859997656
20,716,Equal_null,0.25,0.25,0.005011872336272719,1,0.4409359689998382
20,717,Control,0.0,0.25,0.012589254117941666,0,0.5319704470002762
20,718,Control,0.0,0.1,0.015848931924611127,1,0.4378361130002304
20,719,Control,0.0,0.1,0.012589254117941666,1,0.42232966299889085
20,720,Equal,0.1,0.1,0.025118864315095794,0,0.383122032000756
20,721,Control,0.0,0.1,0.009999999999999995,1,0.663247403999776
20,722,Control,0.0,0.1,0.00794328234724281,0,0.37828902199908043
20,723,Decrease,0.25,0.1,0.009999999999999995,1,0.37855613000101584
20,724,Equal,0.25,0.25,0.009999999999999995,1,0.36559955200027616
20,725,Equal,0.25,0.25,0.00794328234724281,1,0.3914553979993798
20,726,Increase,0.1,0.25,0.00794328234724281,0,0.32316333500057226
20,727,Equal,0.1,0.1,0.031622776601683784,1,0.2862100319998717
20,728,Control,0.0,0.1,0.009999999999999995,0,0.442431375000524
20,729,Equal,0.25,0.25,0.0063095734448019285,0,0.5578018429987424
20,730,Equal,0.25,0.25,0.00794328234724281,0,0.4111453479999909
20,731,Control,0.0,0.25,0.015848931924611127,0,0.39862498799993773
20,732,Equal,0.25,0.25,0.009999999999999995,0,0.3844163670000853
20,733,Control,0.0,0.25,0.01995262314968879,1,0.30755536500146263
20,734,Decrease,0.25,0.1,0.00794328234724281,1,0.37155187999996997
20,735,Increase,0.1,0.25,0.009999999999999995,1,0.27874724499997683
20,736,Control,0.0,0.1,0.012589254117941666,0,0.5680880839991005
20,737,Control,0.0,0.1,0.015848931924611127,1,0.2832830500010459
20,738,Control,0.0,0.1,0.012589254117941666,0,0.7102380540000013
20,739,Decrease,0.25,0.1,0.0063095734448019285,0,0.513547684000514
20,740,Equal,0.25,0.25,0.012589254117941666,0,0.6448709409996809
20,741,Equal,0.25,0.25,0.015848931924611127,1,0.43176690400105144
20,742,Equal,0.25,0.25,0.012589254117941666,0,0.4363375299999461
20,743,Equal,0.25,0.25,0.015848931924611127,0,0.6484566810013348
20,744,Equal,0.1,0.1,0.02511886431509579,1,0.3660748500005866
20,745,Equal,0.1,0.1,0.01995262314968879,1,0.34267514599923743
20,746,Increase,0.1,0.25,0.00794328234724281,1,0.329711550999491
20,747,Decrease,0.25,0.1,0.00794328234724281,0,0.481763645000683
20,748,Decrease,0.25,0.1,0.009999999999999995,0,0.44445302300118783
20,749,Increase,0.1,0.25,0.0063095734448019285,0,0.41336417399907077
20,750,Decrease,0.25,0.1,0.012589254117941666,0,0.3683904919998895
20,751,Decrease,0.25,0.1,0.015848931924611127,1,0.24377833500147972
20,752,Decrease,0.25,0.1,0.012589254117941666,1,0.6070787520002341
20,753,Equal,0.25,0.25,0.01995262314968879,1,0.4102273230000719
20,754,Decrease,0.25,0.1,0.009999999999999995,1,0.3975760680004896
20,755,Equal,0.1,0.1,0.015848931924611127,1,0.4339571700002125
20,756,Increase,0.1,0.25,0.00794328234724281,0,0.573886776001018
20,757,Increase,0.1,0.25,0.009999999999999995,1,0.6431275890008692
20,758,Equal,0.1,0.1,0.012589254117941666,1,0.41186666000066907
20,759,Decrease,0.25,0.1,0.00794328234724281,1,0.31930884900066303
20,760,Decrease,0.25,0.1,0.0063095734448019285,0,0.48846419700021215
20,761,Control,0.0,0.25,0.015848931924611127,1,0.2995391450003808
20,762,Control,0.0,0.25,0.012589254117941666,1,0.4121240829990711
20,763,Control,0.0,0.25,0.009999999999999995,0,0.43115472799945564
20,764,Control,0.0,0.25,0.012589254117941666,0,0.33816365100028634
20,765,Equal,0.1,0.1,0.009999999999999995,0,0.5343370509999659
20,766,Decrease,0.25,0.1,0.00794328234724281,0,0.5458451239992428
20,767,Decrease,0.25,0.1,0.009999999999999995,0,0.4365846189994045
20,768,Control,0.0,0.25,0.015848931924611127,0,0.4562482139990607
20,769,Control,0.0,0.25,0.01995262314968879,1,0.26161411100110854
20,770,Increase,0.1,0.25,0.00794328234724281,1,0.4906073730016942
20,771,Equal,0.1,0.1,0.012589254117941666,1,0.3864996810007142
20,772,Equal,0.1,0.1,0.009999999999999995,0,0.5417060220006533
20,773,Control,0.0,0.25,0.015848931924611127,1,0.3419620810000197
20,774,Increase,0.1,0.25,0.0063095734448019285,0,0.5368936930008203
20,775,Equal,0.1,0.1,0.012589254117941666,0,0.5222912579993135
20,776,Equal,0.1,0.1,0.015848931924611127,1,0.4935516320001625
20,777,Decrease,0.25,0.1,0.012589254117941666,1,0.4566598140008864
20,778,Decrease,0.25,0.1,0.009999999999999995,0,0.5000929069992708
20,779,Control,0.0,0.25,0.012589254117941666,0,0.5340204180010915
20,780,Increase,0.1,0.25,0.00794328234724281,0,0.46494892299961066
20,781,Control,0.0,0.25,0.015848931924611127,0,0.5176583169995865
20,782,Decrease,0.25,0.1,0.012589254117941666,0,0.7616267840003275
20,783,Decrease,0.25,0.1,0.015848931924611127,1,0.2697404819991789
20,784,Increase,0.1,0.25,0.009999999999999995,1,0.3828663000003871
20,785,Increase,0.1,0.25,0.00794328234724281,1,0.746101335998901
20,786,Control,0.0,0.25,0.01995262314968879,1,0.49831767800060334
20,787,Decrease,0.25,0.1,0.012589254117941666,0,0.4778150820002338
20,788,Control,0.0,0.25,0.015848931924611127,1,0.4865364680008497
20,789,Increase,0.1,0.25,0.0063095734448019285,0,0.4735418339987518
20,790,Control,0.0,0.25,0.012589254117941666,1,0.44499204299972916
20,791,Increase,0.1,0.25,0.00794328234724281,1,0.3600977749993035
20,792,Increase,0.1,0.25,0.0063095734448019285,0,0.4765668119998736
20,793,Increase,0.1,0.25,0.00794328234724281,0,0.4955311249996157
20,794,Increase,0.1,0.25,0.009999999999999995,0,0.4989696910015482
20,795,Equal,0.1,0.1,0.012589254117941666,0,0.6470596899998782
20,796,Control,0.0,0.25,0.009999999999999995,0,0.5893942839993542
20,797,Control,0.0,0.25,0.012589254117941666,0,0.3963792270005797
20,798,Equal,0.1,0.1,0.015848931924611127,0,99
20,799,Control,0.0,0.25,0.015848931924611127,0,0.40785694000078365
20,800,Equal,0.1,0.1,0.01995262314968879,1,0.3469227490004414
20,801,Control,0.0,0.25,0.01995262314968879,0,0.5002400550001767
20,802,Increase,0.1,0.25,0.012589254117941666,1,0.3594224379994557
20,803,Control,0.0,0.25,0.025118864315095794,1,0.370516000999487
20,804,Control,0.0,0.25,0.01995262314968879,1,0.4466329449987825
20,805,Control,0.0,0.25,0.015848931924611127,1,0.40191063999918697
20,806,Control,0.0,0.25,0.012589254117941666,1,0.41313197999988915
20,807,Increase,0.1,0.25,0.009999999999999995,0,99
20,808,Equal,0.1,0.1,0.015848931924611127,1,0.6521485740013304
20,809,Increase,0.1,0.25,0.012589254117941666,0,99
20,810,Equal,0.1,0.1,0.012589254117941666,0,0.3866148160013836
20,811,Increase,0.1,0.25,0.015848931924611127,1,0.35012318099870754
20,812,Equal,0.1,0.1,0.015848931924611127,1,0.31015063199993165
20,813,Increase,0.1,0.25,0.012589254117941666,1,0.48915842399946996
20,814,Equal,0.1,0.1,0.012589254117941666,0,0.37933163900015643
20,815,Control,0.0,0.25,0.009999999999999995,0,0.398328663999564
20,816,Equal,0.1,0.1,0.015848931924611127,1,0.4257122139988496
20,817,Control,0.0,0.25,0.012589254117941666,1,0.36501389800105244
20,818,Increase,0.1,0.25,0.009999999999999995,1,0.5693527799994627
20,819,Control,0.0,0.25,0.009999999999999995,0,0.4934608240000671
20,820,Increase,0.1,0.25,0.00794328234724281,0,0.4797022080001625
20,821,Equal,0.1,0.1,0.012589254117941666,1,0.4534849089995987
20,822,Increase,0.1,0.25,0.009999999999999995,1,0.4381679730013275
20,823,Increase,0.1,0.25,0.00794328234724281,1,0.5689458919987374
20,824,Control,0.0,0.25,0.012589254117941666,1,0.6365097100006096
20,825,Equal,0.1,0.1,0.009999999999999995,1,0.46844460800093657
20,826,Control,0.0,0.25,0.009999999999999995,0,0.35988096599976416
20,827,Control,0.0,0.25,0.012589254117941666,0,0.48985526300020865
20,828,Equal,0.1,0.1,0.00794328234724281,0,0.6131014259990479
20,829,Control,0.0,0.25,0.015848931924611127,1,0.4244850110007974
20,830,Equal,0.1,0.1,0.009999999999999995,1,0.5245201380002982
20,831,Equal,0.1,0.1,0.00794328234724281,0,0.6008446799987723
20,832,Control,0.0,0.25,0.012589254117941666,0,0.6623340130008728
20,833,Control,0.0,0.25,0.015848931924611127,0,99
20,834,Equal,0.1,0.1,0.009999999999999995,1,0.6271695569994336
20,835,Equal,0.1,0.1,0.00794328234724281,0,0.5236666470009368
20,836,Control,0.0,0.25,0.01995262314968879,1,0.4295755969997117
20,837,Control,0.0,0.25,0.015848931924611127,1,0.2964040879996901
20,838,Control,0.0,0.25,0.012589254117941666,0,0.5289418590000423
20,839,Equal,0.1,0.1,0.009999999999999995,0,0.5092124869988766
