Participant_Number,Trial_Number,Condition,FC_distal,FC_proximal,Target_Contrast,Correct_Response,Reaction_Time
11,0,Increase,0.1,0.25,0.1,1,0.8091745070000798
11,1,Control,0.0,0.25,0.1,1,0.7150657540000793
11,2,Equal,0.1,0.1,0.1,1,0.9345586100000673
11,3,Control,0.0,0.25,0.07943282347242815,1,1.010894017000055
11,4,Control,0.0,0.1,0.1,1,0.7259952060001069
11,5,Control,0.0,0.1,0.07943282347242815,1,0.6970405590000155
11,6,Decrease,0.25,0.1,0.1,1,0.733754695000016
11,7,Equal,0.1,0.1,0.07943282347242815,1,0.7310279360001459
11,8,Equal,0.1,0.1,0.06309573444801932,1,0.5326992729999347
11,9,Decrease,0.25,0.1,0.07943282347242815,1,0.42413796000005277
11,10,Decrease,0.25,0.1,0.06309573444801932,1,0.744150234000017
11,11,Equal,0.1,0.1,0.05011872336272722,1,0.7151808080000137
11,12,Equal,0.1,0.1,0.03981071705534971,1,0.5404290369999671
11,13,Equal_null,0.25,0.25,0.1,1,0.9674818710000181
11,14,Increase,0.1,0.25,0.07943282347242815,1,0.6027571580000313
11,15,Increase_null,0.1,0.25,0.1,1,0.614023300999861
11,16,Decrease,0.25,0.1,0.05011872336272722,1,0.6173273619999691
11,17,Equal,0.1,0.1,0.031622776601683784,1,0.6764900660000421
11,18,Increase,0.1,0.25,0.06309573444801932,1,0.551422816000013
11,19,Control,0.0,0.1,0.06309573444801932,1,0.6452607119999811
11,20,Decrease,0.25,0.1,0.03981071705534971,1,0.6733522649999486
11,21,Decrease,0.25,0.1,0.031622776601683784,1,0.6338239199999407
11,22,Control,0.0,0.25,0.06309573444801932,1,0.4374401229999876
11,23,Control,0.0,0.1,0.05011872336272722,1,0.4784819620001599
11,24,Equal,0.1,0.1,0.02511886431509579,1,0.4256861259998459
11,25,Equal,0.25,0.25,0.1,1,0.4740986189999603
11,26,Increase,0.1,0.25,0.05011872336272722,1,0.5410142339999311
11,27,Control,0.0,0.1,0.03981071705534971,1,0.4558640039999773
11,28,Increase_null,0.1,0.25,0.07943282347242815,1,0.5474795860000086
11,29,Equal,0.1,0.1,0.01995262314968879,0,0.4625146749999658
11,30,Equal,0.1,0.1,0.025118864315095794,1,0.41074389400000655
11,31,Control,0.0,0.1,0.031622776601683784,1,0.4211089460000039
11,32,Control,0.0,0.25,0.05011872336272722,1,0.442742552000027
11,33,Increase,0.1,0.25,0.03981071705534971,1,0.5104934230000708
11,34,Control,0.0,0.1,0.02511886431509579,1,0.4315665359999912
11,35,Decrease,0.25,0.1,0.02511886431509579,1,0.47469576899993626
11,36,Increase,0.1,0.25,0.031622776601683784,1,0.4359578309999961
11,37,Control,0.0,0.25,0.03981071705534971,1,0.4789973220001684
11,38,Control,0.0,0.1,0.01995262314968879,1,0.5601974899998368
11,39,Control,0.0,0.25,0.031622776601683784,1,0.5474814100000458
11,40,Control,0.0,0.1,0.015848931924611127,1,0.637687743000015
11,41,Equal,0.1,0.1,0.01995262314968879,0,0.6806340089999594
11,42,Control,0.0,0.1,0.012589254117941666,0,0.5561751969999023
11,43,Equal,0.25,0.25,0.07943282347242815,1,0.5990761279999788
11,44,Increase,0.1,0.25,0.02511886431509579,1,0.4673071520001031
11,45,Decrease,0.25,0.1,0.01995262314968879,1,0.4960371199999827
11,46,Control,0.0,0.1,0.015848931924611127,0,0.5402043730000514
11,47,Equal,0.1,0.1,0.025118864315095794,1,0.7253097459999935
11,48,Increase,0.1,0.25,0.01995262314968879,1,0.5360876180000105
11,49,Control,0.0,0.1,0.01995262314968879,0,0.47326526799997737
11,50,Control,0.0,0.25,0.02511886431509579,1,0.49989709300007235
11,51,Equal,0.25,0.25,0.06309573444801932,1,0.45246094999993147
11,52,Equal,0.25,0.25,0.05011872336272722,1,0.3678886269999566
11,53,Equal,0.1,0.1,0.01995262314968879,1,0.3880606100001387
11,54,Control,0.0,0.25,0.01995262314968879,1,0.4071921590000329
11,55,Control_null,0.0,0.25,0.1,1,0.474124847999974
11,56,Equal,0.25,0.25,0.03981071705534971,1,0.42943840599991745
11,57,Control_null,0.0,0.1,0.1,1,0.4646018119999553
11,58,Equal,0.1,0.1,0.015848931924611127,1,0.4370688770000015
11,59,Control,0.0,0.25,0.015848931924611127,1,0.6267205369999829
11,60,Equal_null,0.1,0.1,0.1,1,0.562545603999979
11,61,Equal_null,0.1,0.1,0.07943282347242815,1,0.4614624549999462
11,62,Decrease,0.25,0.1,0.015848931924611127,1,0.4537077509999108
11,63,Control,0.0,0.1,0.025118864315095794,1,0.4807817610001166
11,64,Increase,0.1,0.25,0.015848931924611127,0,0.5859052169998904
11,65,Decrease,0.25,0.1,0.012589254117941666,0,0.718208230999835
11,66,Equal,0.25,0.25,0.031622776601683784,1,0.5453518209999402
11,67,Increase,0.1,0.25,0.01995262314968879,1,0.45188455900006375
11,68,Control,0.0,0.1,0.01995262314968879,1,0.41583962700019583
11,69,Equal_null,0.25,0.25,0.07943282347242815,1,0.47510133600007975
11,70,Control_null,0.0,0.1,0.07943282347242815,1,0.486167518000002
11,71,Equal,0.25,0.25,0.02511886431509579,1,0.5227673929998673
11,72,Increase,0.1,0.25,0.015848931924611127,0,0.7908245749999878
11,73,Control,0.0,0.25,0.012589254117941666,0,0.5507928399999855
11,74,Equal,0.25,0.25,0.01995262314968879,0,0.5137720340001124
11,75,Decrease,0.25,0.1,0.015848931924611127,1,0.7221579570000358
11,76,Control,0.0,0.1,0.015848931924611127,0,0.6533039270000245
11,77,Increase,0.1,0.25,0.01995262314968879,0,0.7193504209999446
11,78,Decrease_null,0.25,0.1,0.1,1,0.5546622100000604
11,79,Control,0.0,0.1,0.01995262314968879,1,0.5659071370000675
11,80,Increase,0.1,0.25,0.025118864315095794,1,0.46493702599991593
11,81,Control,0.0,0.25,0.015848931924611127,0,0.4122520980001809
11,82,Increase,0.1,0.25,0.01995262314968879,0,0.43952659399997174
11,83,Equal,0.1,0.1,0.012589254117941666,0,0.5557061160000103
11,84,Equal,0.25,0.25,0.025118864315095794,1,0.5906711689999611
11,85,Decrease,0.25,0.1,0.012589254117941666,1,0.47500443300009465
11,86,Equal,0.1,0.1,0.015848931924611127,1,0.5386164989999997
11,87,Decrease,0.25,0.1,0.009999999999999995,0,0.5032561669997904
11,88,Control,0.0,0.25,0.01995262314968879,0,0.5196596709999994
11,89,Decrease,0.25,0.1,0.012589254117941666,0,0.4425337650000074
11,90,Control_null,0.0,0.25,0.07943282347242815,1,0.3480186919998687
11,91,Control,0.0,0.25,0.025118864315095794,1,0.5829536189999089
11,92,Control,0.0,0.25,0.01995262314968879,0,0.6022176720000516
11,93,Control,0.0,0.1,0.015848931924611127,0,0.7493989160000183
11,94,Control,0.0,0.25,0.025118864315095794,0,0.5857730139998694
11,95,Equal_null,0.1,0.1,0.06309573444801932,1,0.49248532499996145
11,96,Equal,0.1,0.1,0.012589254117941666,0,0.4159815079999589
11,97,Decrease,0.25,0.1,0.015848931924611127,0,0.5393035300000975
11,98,Control,0.0,0.25,0.031622776601683784,1,0.6314916220001123
11,99,Equal,0.1,0.1,0.015848931924611127,1,0.47164745100008076
11,100,Increase,0.1,0.25,0.025118864315095794,1,0.3789162750001651
11,101,Increase_null,0.1,0.25,0.06309573444801932,1,0.4668726530001095
11,102,Increase_null,0.1,0.25,0.05011872336272722,1,0.4699879699999201
11,103,Control,0.0,0.1,0.01995262314968879,0,0.3681306000000859
11,104,Increase,0.1,0.25,0.01995262314968879,0,0.4914167230001567
11,105,Control,0.0,0.1,0.025118864315095794,1,0.5275754140000117
11,106,Equal,0.1,0.1,0.012589254117941666,0,0.5709785480000846
11,107,Control,0.0,0.1,0.01995262314968879,0,0.4701953159999448
11,108,Equal,0.1,0.1,0.015848931924611127,0,0.466687802000024
11,109,Equal,0.25,0.25,0.01995262314968879,0,0.43736733100013225
11,110,Equal,0.25,0.25,0.025118864315095794,0,0.5997304699999404
11,111,Equal,0.1,0.1,0.01995262314968879,0,0.5628533899998729
11,112,Equal,0.1,0.1,0.025118864315095794,1,0.5471107639998536
11,113,Control_null,0.0,0.1,0.06309573444801932,1,0.4781615550000424
11,114,Control_null,0.0,0.25,0.06309573444801932,1,0.4861981609999475
11,115,Control_null,0.0,0.1,0.05011872336272722,1,0.4104283740000483
11,116,Increase,0.1,0.25,0.025118864315095794,1,0.5246969489999174
11,117,Control,0.0,0.1,0.025118864315095794,1,0.5279159670001263
11,118,Increase,0.1,0.25,0.01995262314968879,1,0.5300559639999847
11,119,Decrease_null,0.25,0.1,0.07943282347242815,1,0.5102907330001472
11,120,Control,0.0,0.25,0.02511886431509579,0,0.9465317050000976
11,121,Decrease,0.25,0.1,0.01995262314968879,0,0.493714435000129
11,122,Increase,0.1,0.25,0.015848931924611127,1,0.6168748709999363
11,123,Equal,0.25,0.25,0.031622776601683784,1,0.508042567000075
11,124,Equal,0.25,0.25,0.02511886431509579,1,0.41521952199991574
11,125,Equal,0.1,0.1,0.01995262314968879,1,0.4664017039999635
11,126,Equal,0.25,0.25,0.01995262314968879,0,0.5094968889998199
11,127,Equal_null,0.25,0.25,0.06309573444801932,1,0.4748870349999379
11,128,Equal,0.1,0.1,0.015848931924611127,0,0.5422928180000781
11,129,Decrease,0.25,0.1,0.025118864315095794,1,0.8793032819999098
11,130,Equal,0.25,0.25,0.025118864315095794,1,0.4183410460000232
11,131,Equal,0.1,0.1,0.01995262314968879,0,0.49150525899995046
11,132,Decrease,0.25,0.1,0.01995262314968879,0,0.3987145749999854
11,133,Control,0.0,0.1,0.01995262314968879,0,0.2390697679998084
11,134,Equal,0.25,0.25,0.01995262314968879,0,0.5311342380000497
11,135,Control,0.0,0.1,0.025118864315095794,1,0.5264948129999993
11,136,Decrease,0.25,0.1,0.025118864315095794,1,0.44146722799996496
11,137,Equal,0.1,0.1,0.025118864315095794,1,0.387753574999806
11,138,Control,0.0,0.1,0.01995262314968879,0,0.3991600389999803
11,139,Equal,0.25,0.25,0.025118864315095794,1,1.1540057610000076
11,140,Control,0.0,0.25,0.031622776601683784,1,0.494893336999894
11,141,Control,0.0,0.25,0.02511886431509579,1,0.39578506900011234
11,142,Equal,0.1,0.1,0.01995262314968879,1,0.49972892999994656
11,143,Equal,0.25,0.25,0.01995262314968879,0,0.3918748010000854
11,144,Decrease,0.25,0.1,0.01995262314968879,0,0.35996535200001745
11,145,Equal,0.1,0.1,0.015848931924611127,0,0.322910340999897
11,146,Equal,0.25,0.25,0.025118864315095794,0,0.46720128900005875
11,147,Control,0.0,0.1,0.025118864315095794,1,0.4234298950000266
11,148,Equal,0.25,0.25,0.031622776601683784,1,0.338699687999906
11,149,Increase,0.1,0.25,0.012589254117941666,0,0.5659317100000862
11,150,Control,0.0,0.25,0.01995262314968879,0,0.4492791580000812
11,151,Decrease,0.25,0.1,0.025118864315095794,0,0.5562540109999645
11,152,Equal,0.1,0.1,0.01995262314968879,0,0.4630732870000429
11,153,Increase,0.1,0.25,0.015848931924611127,1,0.4926406050001333
11,154,Control,0.0,0.1,0.01995262314968879,0,0.7775294479999957
11,155,Control,0.0,0.25,0.025118864315095794,0,0.4660673969999607
11,156,Equal_null,0.25,0.25,0.05011872336272722,1,0.622297996000043
11,157,Equal_null,0.25,0.25,0.03981071705534971,1,0.5503808929997831
11,158,Decrease_null,0.25,0.1,0.06309573444801932,1,0.35338056800014783
11,159,Equal_null,0.1,0.1,0.05011872336272722,1,0.3226075350000883
11,160,Decrease,0.25,0.1,0.031622776601683784,0,0.12595670399991832
11,161,Equal,0.1,0.1,0.025118864315095794,0,0.5131705320000037
11,162,Equal,0.1,0.1,0.031622776601683784,1,0.5163134659999287
11,163,Decrease,0.25,0.1,0.03981071705534971,1,0.36761741200007236
11,164,Equal_null,0.25,0.25,0.031622776601683784,1,0.4988624059999438
11,165,Equal,0.25,0.25,0.02511886431509579,1,0.47791653800004497
11,166,Equal,0.1,0.1,0.02511886431509579,1,0.3713702210000065
11,167,Decrease,0.25,0.1,0.031622776601683784,1,0.39210028299999067
11,168,Increase,0.1,0.25,0.012589254117941666,0,0.432546714999944
11,169,Decrease,0.25,0.1,0.02511886431509579,1,0.6196325980001802
11,170,Equal,0.25,0.25,0.01995262314968879,0,0.40369584100017164
11,171,Equal,0.25,0.25,0.025118864315095794,1,0.4000884260001385
11,172,Equal,0.25,0.25,0.01995262314968879,0,0.4563005630000134
11,173,Increase,0.1,0.25,0.015848931924611127,0,0.46739170099999683
11,174,Equal,0.1,0.1,0.01995262314968879,0,0.31948971499991785
11,175,Equal,0.25,0.25,0.025118864315095794,0,0.4026214819998586
11,176,Increase,0.1,0.25,0.01995262314968879,0,0.34183654299999944
11,177,Decrease,0.25,0.1,0.01995262314968879,0,0.4571851159998914
11,178,Control,0.0,0.1,0.025118864315095794,1,0.4440785760000381
11,179,Equal,0.1,0.1,0.025118864315095794,1,0.36836190799999713
11,180,Decrease,0.25,0.1,0.025118864315095794,1,0.2846188629998778
11,181,Equal_null,0.1,0.1,0.03981071705534971,1,0.3728315159999056
11,182,Equal,0.25,0.25,0.031622776601683784,1,0.40813625200007664
11,183,Equal,0.1,0.1,0.01995262314968879,0,0.377122621999888
11,184,Decrease,0.25,0.1,0.01995262314968879,0,0.3883413319999818
11,185,Increase,0.1,0.25,0.025118864315095794,0,0.37351593600010347
11,186,Equal,0.1,0.1,0.025118864315095794,0,0.32883230200013713
11,187,Control,0.0,0.25,0.031622776601683784,1,0.37214086899984977
11,188,Control,0.0,0.25,0.02511886431509579,1,0.5590529169999172
11,189,Decrease,0.25,0.1,0.025118864315095794,1,0.34528630799991333
11,190,Decrease,0.25,0.1,0.01995262314968879,1,0.42866036400005214
11,191,Equal,0.25,0.25,0.02511886431509579,1,0.4076630720001049
11,192,Equal,0.1,0.1,0.031622776601683784,1,0.33085599500009266
11,193,Control,0.0,0.25,0.01995262314968879,0,0.5899843340000643
11,194,Control,0.0,0.1,0.01995262314968879,0,0.3031659349999245
11,195,Equal,0.25,0.25,0.01995262314968879,1,0.44243624900013856
11,196,Control,0.0,0.25,0.025118864315095794,1,0.29053309400001126
11,197,Equal,0.1,0.1,0.02511886431509579,1,0.3657802200000333
11,198,Control,0.0,0.25,0.01995262314968879,0,0.4482613200000287
11,199,Equal,0.25,0.25,0.015848931924611127,0,0.37126645900002586
11,200,Equal,0.1,0.1,0.01995262314968879,0,0.4303653829999803
11,201,Increase,0.1,0.25,0.031622776601683784,1,0.5695235970001704
11,202,Control,0.0,0.25,0.025118864315095794,1,0.39672619499992834
11,203,Equal,0.25,0.25,0.01995262314968879,0,0.48886114300012196
11,204,Decrease,0.25,0.1,0.015848931924611127,0,0.3402731160001622
11,205,Increase,0.1,0.25,0.02511886431509579,0,0.39165792799985866
11,206,Control,0.0,0.1,0.025118864315095794,1,0.46751476999997976
11,207,Control,0.0,0.1,0.01995262314968879,0,0.3395987349999814
11,208,Control,0.0,0.25,0.01995262314968879,0,0.35090280800000073
11,209,Control_null,0.0,0.1,0.03981071705534971,1,0.3910326239999904
11,210,Control,0.0,0.25,0.025118864315095794,1,0.49792438300005415
11,211,Equal,0.25,0.25,0.025118864315095794,1,0.6040692130000025
11,212,Equal,0.25,0.25,0.01995262314968879,1,0.4633608770000137
11,213,Increase,0.1,0.25,0.031622776601683784,1,0.4667932849999943
11,214,Control,0.0,0.25,0.01995262314968879,0,0.7259182360000977
11,215,Increase,0.1,0.25,0.02511886431509579,0,0.43418310600009136
11,216,Control,0.0,0.1,0.025118864315095794,0,0.4693896940000286
11,217,Equal,0.1,0.1,0.025118864315095794,0,0.4575013589999344
11,218,Increase_null,0.1,0.25,0.03981071705534971,1,0.5891997349999656
11,219,Equal,0.25,0.25,0.015848931924611127,0,0.43199324100010017
11,220,Equal,0.1,0.1,0.031622776601683784,0,0.4879858790000071
11,221,Increase,0.1,0.25,0.031622776601683784,1,0.40318818099990494
11,222,Equal,0.25,0.25,0.01995262314968879,0,0.45160528099995645
11,223,Increase_null,0.1,0.25,0.031622776601683784,1,0.39853921300004913
11,224,Increase_null,0.1,0.25,0.02511886431509579,1,0.48868921899997986
11,225,Equal,0.1,0.1,0.03981071705534971,1,0.5400566140001501
11,226,Control,0.0,0.25,0.025118864315095794,1,0.4481930659999307
11,227,Control_null,0.0,0.25,0.05011872336272722,1,0.5075714550000612
11,228,Decrease,0.25,0.1,0.01995262314968879,0,0.3266038500000832
11,229,Control,0.0,0.25,0.01995262314968879,0,0.3466187120000086
11,230,Equal,0.25,0.25,0.025118864315095794,0,0.4298914760001935
11,231,Equal,0.1,0.1,0.031622776601683784,1,0.42515022899988253
11,232,Equal,0.25,0.25,0.031622776601683784,1,0.40430826100009654
11,233,Control,0.0,0.1,0.031622776601683784,1,0.40443855900002745
11,234,Control,0.0,0.25,0.025118864315095794,1,0.4074429570000575
11,235,Increase,0.1,0.25,0.02511886431509579,0,0.5359381499999927
11,236,Control,0.0,0.1,0.02511886431509579,1,0.556236791999936
11,237,Control,0.0,0.1,0.01995262314968879,1,0.4381980329999351
11,238,Increase,0.1,0.25,0.031622776601683784,1,0.41734794899980443
11,239,Equal,0.1,0.1,0.02511886431509579,1,0.3713965070000995
11,240,Equal,0.25,0.25,0.02511886431509579,0,0.32225994200007335
11,241,Control,0.0,0.25,0.01995262314968879,1,0.4054374109998662
11,242,Control,0.0,0.25,0.015848931924611127,1,0.5686438200000339
11,243,Equal,0.25,0.25,0.031622776601683784,1,0.4533282209999925
11,244,Increase,0.1,0.25,0.02511886431509579,1,0.41753000900007464
11,245,Control,0.0,0.1,0.015848931924611127,0,0.2834669419999045
11,246,Equal,0.1,0.1,0.01995262314968879,1,0.35822868900004323
11,247,Equal,0.25,0.25,0.02511886431509579,1,0.3536687749999601
11,248,Increase,0.1,0.25,0.01995262314968879,0,0.38659026899995297
11,249,Control,0.0,0.25,0.012589254117941666,0,0.3579168139999638
11,250,Decrease,0.25,0.1,0.025118864315095794,0,0.5339343999999073
11,251,Decrease_null,0.25,0.1,0.05011872336272722,1,0.3132641740000963
11,252,Control,0.0,0.1,0.01995262314968879,0,0.3320175300000301
11,253,Control,0.0,0.1,0.025118864315095794,1,0.39176932500004114
11,254,Equal,0.25,0.25,0.01995262314968879,0,0.618899736000003
11,255,Control,0.0,0.25,0.015848931924611127,0,0.4460675079999419
11,256,Equal,0.25,0.25,0.025118864315095794,1,0.43563124999991487
11,257,Decrease,0.25,0.1,0.031622776601683784,1,0.3280409829999371
11,258,Increase_null,0.1,0.25,0.01995262314968879,1,0.3938787840002078
11,259,Control,0.0,0.25,0.01995262314968879,0,0.3648625359999187
11,260,Equal,0.1,0.1,0.015848931924611127,0,0.3280288449998352
11,261,Increase,0.1,0.25,0.025118864315095794,0,0.41716184100005194
11,262,Control,0.0,0.1,0.01995262314968879,0,0.3404772400001548
11,263,Equal,0.1,0.1,0.01995262314968879,0,0.4045850170000449
11,264,Decrease,0.25,0.1,0.02511886431509579,0,0.4233379629999945
11,265,Decrease,0.25,0.1,0.031622776601683784,0,0.43491391400016255
11,266,Equal,0.25,0.25,0.01995262314968879,0,0.41394526199997017
11,267,Equal,0.25,0.25,0.025118864315095794,0,0.48112340700004097
11,268,Increase,0.1,0.25,0.031622776601683784,1,0.4855898130001606
11,269,Equal,0.1,0.1,0.025118864315095794,0,0.4488745079997898
11,270,Decrease,0.25,0.1,0.03981071705534971,1,0.40593742500004737
11,271,Control_null,0.0,0.1,0.031622776601683784,1,0.46430167999983496
11,272,Control,0.0,0.25,0.025118864315095794,0,0.6110447779999504
11,273,Equal,0.25,0.25,0.031622776601683784,0,0.4542254010000306
11,274,Control,0.0,0.1,0.025118864315095794,1,0.5835157799999706
11,275,Decrease,0.25,0.1,0.031622776601683784,1,0.40280042900008084
11,276,Increase,0.1,0.25,0.02511886431509579,0,0.5068792790000316
11,277,Decrease,0.25,0.1,0.02511886431509579,0,0.5658667239999886
11,278,Equal_null,0.25,0.25,0.02511886431509579,1,0.4892780560001029
11,279,Control,0.0,0.25,0.031622776601683784,1,0.4613735049999832
11,280,Equal,0.25,0.25,0.03981071705534971,1,0.4008617540002888
11,281,Equal,0.25,0.25,0.031622776601683784,1,0.5160420580000391
11,282,Decrease,0.25,0.1,0.031622776601683784,1,0.45651789900011863
11,283,Equal,0.1,0.1,0.031622776601683784,1,0.4294665540001006
11,284,Control,0.0,0.1,0.01995262314968879,0,0.5696059280003283
11,285,Control,0.0,0.1,0.025118864315095794,1,0.44261170299978403
11,286,Control,0.0,0.25,0.02511886431509579,0,0.6619332440000107
11,287,Control,0.0,0.1,0.01995262314968879,0,0.40698287199984406
11,288,Equal,0.1,0.1,0.02511886431509579,0,0.7293442830000458
11,289,Control,0.0,0.1,0.025118864315095794,0,0.5773101039999347
11,290,Control,0.0,0.1,0.031622776601683784,1,0.49254345600002125
11,291,Decrease,0.25,0.1,0.02511886431509579,0,0.5194055490001119
11,292,Control,0.0,0.25,0.031622776601683784,1,0.5549993549998362
11,293,Control,0.0,0.1,0.02511886431509579,1,0.4537432249999256
11,294,Equal,0.25,0.25,0.02511886431509579,0,0.44119259499984764
11,295,Control,0.0,0.1,0.01995262314968879,0,0.5816351670000586
11,296,Equal,0.25,0.25,0.031622776601683784,1,0.44277026499958083
11,297,Equal_null,0.25,0.25,0.01995262314968879,1,0.7191958079997676
11,298,Increase,0.1,0.25,0.031622776601683784,0,0.4871551440000985
11,299,Equal,0.25,0.25,0.02511886431509579,0,0.4111936340000284
11,300,Equal_null,0.1,0.1,0.031622776601683784,1,0.43536934499979907
11,301,Equal,0.25,0.25,0.031622776601683784,1,0.4624448979998306
11,302,Increase,0.1,0.25,0.03981071705534971,1,0.43872890700004064
11,303,Decrease,0.25,0.1,0.031622776601683784,1,0.41806662099997993
11,304,Control_null,0.0,0.1,0.02511886431509579,1,0.5582864480002172
11,305,Equal_null,0.25,0.25,0.015848931924611127,1,0.44120977300008235
11,306,Equal,0.25,0.25,0.02511886431509579,0,0.508490165999774
11,307,Decrease,0.25,0.1,0.02511886431509579,0,0.5599849440000071
11,308,Control,0.0,0.1,0.025118864315095794,1,0.4363202290001027
11,309,Control,0.0,0.1,0.01995262314968879,1,0.4084900349998861
11,310,Equal,0.1,0.1,0.031622776601683784,1,0.4091828790001273
11,311,Control,0.0,0.1,0.015848931924611127,0,0.572030561000247
11,312,Control,0.0,0.25,0.02511886431509579,0,0.5365448350003135
11,313,Equal,0.25,0.25,0.031622776601683784,1,0.40087344199992003
11,314,Equal,0.25,0.25,0.02511886431509579,1,0.4438271890003307
11,315,Increase,0.1,0.25,0.031622776601683784,1,0.42926549100002376
11,316,Decrease,0.25,0.1,0.031622776601683784,1,0.40808273699985875
11,317,Control,0.0,0.1,0.01995262314968879,0,0.5155877400002282
11,318,Decrease,0.25,0.1,0.02511886431509579,0,0.42255416200032414
11,319,Control,0.0,0.1,0.025118864315095794,1,0.6418230270001004
11,320,Control,0.0,0.25,0.031622776601683784,1,0.7180253390001781
11,321,Decrease,0.25,0.1,0.031622776601683784,1,0.3934807550003825
11,322,Control,0.0,0.25,0.02511886431509579,1,0.3989483509999445
11,323,Decrease_null,0.25,0.1,0.03981071705534971,1,0.5472475910000867
11,324,Control,0.0,0.25,0.01995262314968879,0,0.43492887399997926
11,325,Control,0.0,0.1,0.01995262314968879,0,0.533923541999684
11,326,Control,0.0,0.25,0.025118864315095794,1,0.43144965800001955
11,327,Decrease,0.25,0.1,0.02511886431509579,1,0.3301935089998551
11,328,Control,0.0,0.1,0.025118864315095794,1,0.3234951170002205
11,329,Decrease,0.25,0.1,0.01995262314968879,0,0.398738412000057
11,330,Increase,0.1,0.25,0.02511886431509579,1,0.426025023999955
11,331,Control,0.0,0.1,0.01995262314968879,0,0.3663721190000615
11,332,Decrease,0.25,0.1,0.025118864315095794,1,0.39334011900018595
11,333,Equal,0.1,0.1,0.02511886431509579,1,0.37352418900036355
11,334,Control,0.0,0.25,0.01995262314968879,0,0.4807950169997639
11,335,Equal,0.25,0.25,0.01995262314968879,0,0.3728449489999548
11,336,Control,0.0,0.25,0.025118864315095794,1,0.6298488450001969
11,337,Decrease,0.25,0.1,0.01995262314968879,0,0.32911914900023476
11,338,Control,0.0,0.1,0.025118864315095794,1,0.3644158659999448
11,339,Control,0.0,0.25,0.01995262314968879,1,0.4366518659999201
11,340,Increase,0.1,0.25,0.01995262314968879,1,0.4157569919998423
11,341,Equal,0.25,0.25,0.025118864315095794,1,0.38514087500016103
11,342,Equal,0.1,0.1,0.01995262314968879,0,0.5327449789997445
11,343,Decrease,0.25,0.1,0.025118864315095794,0,0.4882455070001015
11,344,Control_null,0.0,0.25,0.03981071705534971,1,0.4989085160000286
11,345,Equal_null,0.25,0.25,0.012589254117941666,1,0.5108710659997087
11,346,Equal,0.25,0.25,0.01995262314968879,0,0.37799748799989175
11,347,Increase,0.1,0.25,0.015848931924611127,0,0.4451923810001972
11,348,Increase,0.1,0.25,0.01995262314968879,0,0.5121900369999821
11,349,Control,0.0,0.25,0.015848931924611127,0,0.3774642369999128
11,350,Increase,0.1,0.25,0.025118864315095794,1,0.4283795149999605
11,351,Control,0.0,0.1,0.01995262314968879,0,0.41565871200009497
11,352,Decrease,0.25,0.1,0.031622776601683784,1,0.440395105999869
11,353,Equal,0.25,0.25,0.025118864315095794,1,0.404274976999659
11,354,Increase,0.1,0.25,0.01995262314968879,0,0.4374713919996793
11,355,Equal,0.1,0.1,0.025118864315095794,0,0.48854660500001046
11,356,Equal_null,0.25,0.25,0.009999999999999995,1,0.33289590100002897
11,357,Control,0.0,0.25,0.01995262314968879,0,0.4878628810001828
11,358,Equal_null,0.1,0.1,0.02511886431509579,1,0.41226455200012424
11,359,Control,0.0,0.25,0.025118864315095794,0,0.16817940000009912
11,360,Decrease,0.25,0.1,0.02511886431509579,1,0.47669441700008974
11,361,Control,0.0,0.1,0.025118864315095794,0,0.29608426699996926
11,362,Control,0.0,0.25,0.031622776601683784,1,0.5120224669999516
11,363,Increase,0.1,0.25,0.025118864315095794,1,0.347088069000165
11,364,Equal,0.25,0.25,0.01995262314968879,0,0.32658768999999666
11,365,Control,0.0,0.25,0.02511886431509579,0,0.33776365600033387
11,366,Control,0.0,0.25,0.031622776601683784,1,0.38097214599974905
11,367,Equal,0.1,0.1,0.031622776601683784,1,0.3520956410002327
11,368,Equal,0.25,0.25,0.025118864315095794,0,0.39051781399984975
11,369,Control,0.0,0.1,0.031622776601683784,1,0.4188860219996968
11,370,Equal,0.25,0.25,0.031622776601683784,1,0.47784549799962406
11,371,Equal,0.25,0.25,0.02511886431509579,0,0.49578320199998416
11,372,Control,0.0,0.25,0.02511886431509579,0,0.3070873080000638
11,373,Equal,0.25,0.25,0.031622776601683784,1,0.3152219739999964
11,374,Decrease,0.25,0.1,0.01995262314968879,1,0.37540224400027
11,375,Decrease,0.25,0.1,0.015848931924611127,0,0.37564834700015126
11,376,Decrease,0.25,0.1,0.01995262314968879,0,0.4587585780000154
11,377,Decrease,0.25,0.1,0.025118864315095794,1,0.42193577999978515
11,378,Decrease,0.25,0.1,0.01995262314968879,0,0.36892602899979465
11,379,Control,0.0,0.25,0.031622776601683784,1,0.37243966799996997
11,380,Increase,0.1,0.25,0.01995262314968879,0,0.4153855249996923
11,381,Decrease,0.25,0.1,0.025118864315095794,1,0.33354519000022265
11,382,Equal,0.25,0.25,0.02511886431509579,1,0.30619352500025343
11,383,Control,0.0,0.1,0.02511886431509579,1,0.3554515509999874
11,384,Equal,0.25,0.25,0.01995262314968879,1,0.39121105999993233
11,385,Increase,0.1,0.25,0.025118864315095794,1,0.3704087139999501
11,386,Equal,0.25,0.25,0.015848931924611127,0,0.3306486149999728
11,387,Equal,0.1,0.1,0.02511886431509579,0,0.3737790430000132
11,388,Control,0.0,0.25,0.02511886431509579,0,0.37296523900022294
11,389,Increase_null,0.1,0.25,0.015848931924611127,1,0.36018825599967386
11,390,Equal,0.25,0.25,0.01995262314968879,1,0.45134651800026404
11,391,Equal,0.1,0.1,0.031622776601683784,1,0.422448845999952
11,392,Increase,0.1,0.25,0.01995262314968879,1,0.5619866050001292
11,393,Control,0.0,0.25,0.031622776601683784,1,0.4527143270001943
11,394,Control,0.0,0.1,0.01995262314968879,1,0.5304179599997951
11,395,Control,0.0,0.25,0.02511886431509579,1,0.5907979319999868
11,396,Control,0.0,0.1,0.015848931924611127,1,0.9128447499997492
11,397,Control,0.0,0.25,0.01995262314968879,1,0.49964177199990445
11,398,Increase,0.1,0.25,0.015848931924611127,0,0.4637371029998576
11,399,Increase,0.1,0.25,0.01995262314968879,0,0.4481852990002153
11,400,Control,0.0,0.1,0.012589254117941666,0,0.5152185840001948
11,401,Control,0.0,0.1,0.015848931924611127,0,0.33938118400010353
11,402,Increase,0.1,0.25,0.025118864315095794,0,0.29439400199999
11,403,Equal,0.25,0.25,0.015848931924611127,0,0.3310031890000573
11,404,Increase,0.1,0.25,0.031622776601683784,1,0.4458777039999404
11,405,Equal,0.25,0.25,0.01995262314968879,1,0.3292195020003419
11,406,Increase,0.1,0.25,0.02511886431509579,1,0.3964826080000421
11,407,Decrease,0.25,0.1,0.01995262314968879,1,0.41712571599964576
11,408,Control_null,0.0,0.1,0.01995262314968879,1,0.4610777129996677
11,409,Equal,0.1,0.1,0.02511886431509579,0,0.3910077040000033
11,410,Control,0.0,0.25,0.015848931924611127,0,0.4500702559998899
11,411,Equal,0.1,0.1,0.031622776601683784,1,0.4860092259996236
11,412,Decrease,0.25,0.1,0.015848931924611127,0,0.6065252809999038
11,413,Equal_null,0.25,0.25,0.00794328234724281,1,0.5056270539998877
11,414,Decrease,0.25,0.1,0.01995262314968879,0,0.5311030739999296
11,415,Control,0.0,0.25,0.01995262314968879,0,0.558202872000038
11,416,Control,0.0,0.25,0.025118864315095794,1,0.4491215100001682
11,417,Decrease,0.25,0.1,0.025118864315095794,1,0.4200545369999418
11,418,Equal_null,0.1,0.1,0.01995262314968879,1,0.36771438300002046
11,419,Equal,0.25,0.25,0.015848931924611127,0,0.41868160500007434
11,420,Increase,0.1,0.25,0.01995262314968879,0,0.33561792799991963
11,421,Equal,0.1,0.1,0.02511886431509579,0,0.3793668240000443
11,422,Control,0.0,0.1,0.01995262314968879,0,0.3333217979998153
11,423,Control,0.0,0.25,0.01995262314968879,0,0.40851469700010057
11,424,Increase,0.1,0.25,0.025118864315095794,0,0.46763154700011
11,425,Equal,0.25,0.25,0.01995262314968879,0,0.6120358719999786
11,426,Control,0.0,0.1,0.025118864315095794,1,0.43905121900024824
11,427,Control,0.0,0.1,0.01995262314968879,1,0.903983992999656
11,428,Control,0.0,0.1,0.015848931924611127,0,0.3155632420002803
11,429,Increase,0.1,0.25,0.031622776601683784,1,0.43058868900016023
11,430,Equal,0.1,0.1,0.031622776601683784,1,0.2989772000000812
11,431,Equal,0.25,0.25,0.025118864315095794,1,0.3900119920003817
11,432,Equal,0.1,0.1,0.02511886431509579,1,0.4572742380000818
11,433,Equal,0.25,0.25,0.01995262314968879,0,0.5498207730001923
11,434,Increase,0.1,0.25,0.02511886431509579,0,0.3150732710000739
11,435,Equal_null,0.25,0.25,0.0063095734448019285,1,0.38776497500020923
11,436,Control,0.0,0.25,0.025118864315095794,1,0.43113786999992953
11,437,Increase,0.1,0.25,0.031622776601683784,1,0.33022602699975323
11,438,Increase,0.1,0.25,0.02511886431509579,1,0.41824385500012795
11,439,Control,0.0,0.1,0.01995262314968879,0,0.4055806080000366
11,440,Control,0.0,0.25,0.01995262314968879,0,0.3266509079999196
11,441,Equal,0.25,0.25,0.025118864315095794,1,0.4897471660001429
11,442,Control,0.0,0.1,0.025118864315095794,1,0.4371797220001099
11,443,Decrease,0.25,0.1,0.01995262314968879,0,0.3602756259997477
11,444,Equal,0.1,0.1,0.01995262314968879,1,0.5395270649996746
11,445,Control,0.0,0.25,0.025118864315095794,1,0.47136554100006833
11,446,Equal,0.1,0.1,0.015848931924611127,0,0.4365585700002157
11,447,Equal,0.1,0.1,0.01995262314968879,0,0.4639193460002389
11,448,Control,0.0,0.1,0.01995262314968879,0,0.3051755719998255
11,449,Equal,0.1,0.1,0.025118864315095794,0,0.43625821200021164
11,450,Equal,0.25,0.25,0.01995262314968879,1,0.41531692199987447
11,451,Equal,0.1,0.1,0.031622776601683784,1,0.31289793999985704
11,452,Control,0.0,0.25,0.01995262314968879,0,0.3561327090001214
11,453,Decrease,0.25,0.1,0.025118864315095794,0,0.37279028600005404
11,454,Equal,0.1,0.1,0.02511886431509579,1,0.37636139500000354
11,455,Decrease,0.25,0.1,0.031622776601683784,1,0.38756762599996364
11,456,Decrease,0.25,0.1,0.02511886431509579,1,0.3984312590000627
11,457,Equal,0.25,0.25,0.015848931924611127,0,0.3940144439998221
11,458,Increase,0.1,0.25,0.01995262314968879,0,0.31799363200025255
11,459,Equal,0.25,0.25,0.01995262314968879,0,0.33735343000034845
11,460,Equal,0.25,0.25,0.025118864315095794,1,0.35104393500023434
11,461,Control,0.0,0.25,0.025118864315095794,1,0.4235642089997782
11,462,Increase,0.1,0.25,0.025118864315095794,1,0.45843280000008235
11,463,Control,0.0,0.25,0.01995262314968879,1,0.37369925799976045
11,464,Equal,0.25,0.25,0.01995262314968879,0,0.3592623500003356
11,465,Equal,0.1,0.1,0.01995262314968879,0,0.43424989899995126
11,466,Equal,0.25,0.25,0.025118864315095794,1,0.3555727869998009
11,467,Control,0.0,0.25,0.015848931924611127,1,0.4066220390000126
11,468,Increase,0.1,0.25,0.01995262314968879,0,0.45099750700001096
11,469,Equal,0.1,0.1,0.025118864315095794,0,0.3341853439997067
11,470,Control,0.0,0.1,0.025118864315095794,1,0.32124618799980453
11,471,Decrease,0.25,0.1,0.01995262314968879,1,0.4040352229999371
11,472,Control,0.0,0.1,0.01995262314968879,1,0.3994824310002514
11,473,Equal,0.1,0.1,0.031622776601683784,1,0.5078153459999157
11,474,Increase,0.1,0.25,0.025118864315095794,0,0.7250007309999091
11,475,Equal_null,0.1,0.1,0.015848931924611127,1,0.4001981930000511
11,476,Equal,0.1,0.1,0.02511886431509579,0,0.3451846569996633
11,477,Increase,0.1,0.25,0.031622776601683784,1,0.3246429559999342
11,478,Equal,0.1,0.1,0.031622776601683784,1,0.455715586000224
11,479,Control,0.0,0.25,0.012589254117941666,0,0.3059859059999326
11,480,Equal,0.25,0.25,0.01995262314968879,0,0.3289499409997916
11,481,Decrease,0.25,0.1,0.015848931924611127,0,0.18017593500007933
11,482,Equal,0.1,0.1,0.02511886431509579,0,0.4952321860000666
11,483,Equal,0.1,0.1,0.031622776601683784,0,0.39545447800037437
11,484,Equal,0.1,0.1,0.03981071705534971,0,0.3613597819999086
11,485,Equal,0.25,0.25,0.025118864315095794,0,0.3639764310000828
11,486,Control,0.0,0.25,0.015848931924611127,0,0.4130068200001915
11,487,Control,0.0,0.25,0.01995262314968879,0,0.36132383199992546
11,488,Control,0.0,0.1,0.015848931924611127,0,0.3615245600003618
11,489,Decrease,0.25,0.1,0.01995262314968879,0,0.38732237899967004
11,490,Control,0.0,0.1,0.01995262314968879,0,0.34080669700006183
11,491,Equal,0.1,0.1,0.05011872336272721,1,0.3197838200003389
11,492,Decrease,0.25,0.1,0.025118864315095794,1,0.33822337099991273
11,493,Equal,0.1,0.1,0.03981071705534971,1,0.2854042870003468
11,494,Increase_null,0.1,0.25,0.012589254117941666,1,0.3455620270001418
11,495,Equal,0.25,0.25,0.031622776601683784,1,0.6766571019998082
11,496,Equal,0.1,0.1,0.031622776601683784,1,0.32007474300007743
11,497,Equal,0.1,0.1,0.02511886431509579,1,0.2610199699997793
11,498,Increase,0.1,0.25,0.02511886431509579,1,0.38684106599976076
11,499,Control,0.0,0.25,0.025118864315095794,0,0.29932349499995325
11,500,Equal,0.1,0.1,0.01995262314968879,0,0.3745997180003542
11,501,Equal,0.25,0.25,0.02511886431509579,0,0.42266820499980895
11,502,Equal,0.1,0.1,0.025118864315095794,1,0.26583004800022536
11,503,Decrease,0.25,0.1,0.01995262314968879,0,0.4111834790001012
11,504,Increase,0.1,0.25,0.01995262314968879,0,0.31836025299980975
11,505,Increase,0.1,0.25,0.025118864315095794,1,0.3285694760002116
11,506,Equal,0.25,0.25,0.031622776601683784,0,0.34874970500004565
11,507,Decrease,0.25,0.1,0.025118864315095794,0,0.46384268100018744
11,508,Control,0.0,0.1,0.025118864315095794,1,0.4031817340000998
11,509,Control_null,0.0,0.1,0.015848931924611127,1,0.3356901229999494
11,510,Equal,0.25,0.25,0.03981071705534971,1,0.2518753439999273
11,511,Equal,0.1,0.1,0.01995262314968879,1,0.321497804000046
11,512,Control,0.0,0.25,0.031622776601683784,1,0.2577489670002251
11,513,Decrease,0.25,0.1,0.031622776601683784,1,0.23024707399963518
11,514,Increase,0.1,0.25,0.01995262314968879,0,0.5503365989998201
11,515,Decrease,0.25,0.1,0.02511886431509579,0,0.4173517770000217
11,516,Equal_null,0.1,0.1,0.012589254117941666,0,0.3057548679998945
11,517,Equal_null,0.1,0.1,0.015848931924611127,1,0.29369950899990727
11,518,Equal,0.1,0.1,0.015848931924611127,0,0.3369586829999207
11,519,Decrease,0.25,0.1,0.031622776601683784,1,0.4282111970001097
11,520,Control,0.0,0.25,0.02511886431509579,1,0.343493743000181
11,521,Equal,0.25,0.25,0.031622776601683784,1,0.24257557500004623
11,522,Equal,0.25,0.25,0.02511886431509579,1,0.4065916690001359
11,523,Equal,0.1,0.1,0.01995262314968879,1,0.3000571949996811
11,524,Equal,0.25,0.25,0.01995262314968879,0,0.6162669360001019
11,525,Increase,0.1,0.25,0.025118864315095794,0,0.21687876800024242
11,526,Decrease,0.25,0.1,0.02511886431509579,0,0.40413827499969557
11,527,Control,0.0,0.1,0.01995262314968879,0,0.4217176130000553
11,528,Control,0.0,0.1,0.025118864315095794,1,0.353071072000148
11,529,Equal,0.25,0.25,0.025118864315095794,1,0.28079877399977704
11,530,Increase,0.1,0.25,0.031622776601683784,1,0.3401353389999713
11,531,Decrease,0.25,0.1,0.031622776601683784,1,0.23944548600002236
11,532,Equal,0.1,0.1,0.015848931924611127,1,0.26765433000036865
11,533,Equal,0.1,0.1,0.012589254117941666,0,0.4546960350003246
11,534,Equal,0.1,0.1,0.015848931924611127,0,0.19397251600003074
11,535,Equal_null,0.25,0.25,0.005011872336272719,1,0.23622761900014666
11,536,Equal,0.1,0.1,0.01995262314968879,0,0.35257890900038547
11,537,Control,0.0,0.25,0.01995262314968879,1,0.2785980200001177
11,538,Decrease,0.25,0.1,0.02511886431509579,0,0.36660832699999446
11,539,Equal,0.1,0.1,0.025118864315095794,0,0.2964986389997648
11,540,Control_null,0.0,0.1,0.012589254117941666,1,0.3862620719996812
11,541,Equal,0.25,0.25,0.01995262314968879,0,0.38925468699972043
11,542,Control_null,0.0,0.1,0.009999999999999995,1,0.30125360000010915
11,543,Control_null,0.0,0.1,0.00794328234724281,1,0.39375656900028844
11,544,Equal,0.1,0.1,0.031622776601683784,1,0.3639359969997713
11,545,Increase,0.1,0.25,0.02511886431509579,0,0.41608781600007205
11,546,Decrease,0.25,0.1,0.031622776601683784,1,0.42734127699986857
11,547,Decrease,0.25,0.1,0.02511886431509579,1,0.3582082419998187
11,548,Increase,0.1,0.25,0.031622776601683784,1,0.41081422600018414
11,549,Control,0.0,0.25,0.015848931924611127,1,0.4322623520001798
11,550,Equal,0.25,0.25,0.025118864315095794,0,0.4606080859998656
11,551,Control_null,0.0,0.1,0.0063095734448019285,1,0.3811731430000691
11,552,Increase,0.1,0.25,0.02511886431509579,1,0.36794648300019617
11,553,Equal_null,0.1,0.1,0.012589254117941666,0,0.23213354000017716
11,554,Equal,0.1,0.1,0.02511886431509579,1,0.4357634859998143
11,555,Control,0.0,0.1,0.01995262314968879,0,0.30885168499980864
11,556,Increase,0.1,0.25,0.01995262314968879,0,0.39999241200030156
11,557,Increase,0.1,0.25,0.025118864315095794,0,0.3641841280000335
11,558,Equal,0.25,0.25,0.031622776601683784,1,0.3434316430002582
11,559,Equal,0.1,0.1,0.01995262314968879,0,0.3386379550001948
11,560,Increase,0.1,0.25,0.031622776601683784,0,0.5175946260001183
11,561,Equal,0.25,0.25,0.02511886431509579,0,0.42517250899982173
11,562,Control,0.0,0.1,0.025118864315095794,1,0.4788227700000789
11,563,Control,0.0,0.1,0.01995262314968879,0,0.4750182230000064
11,564,Increase,0.1,0.25,0.03981071705534971,1,0.41970363600012206
11,565,Increase,0.1,0.25,0.031622776601683784,1,0.2782267799998408
11,566,Increase,0.1,0.25,0.02511886431509579,1,0.26264229800017347
11,567,Equal,0.1,0.1,0.025118864315095794,1,0.4579226880000533
11,568,Increase,0.1,0.25,0.01995262314968879,0,0.33935774600013247
11,569,Control,0.0,0.1,0.025118864315095794,0,0.3434380170001532
11,570,Increase,0.1,0.25,0.025118864315095794,1,0.3466156800000135
11,571,Equal,0.1,0.1,0.01995262314968879,1,0.38979319800000667
11,572,Increase,0.1,0.25,0.01995262314968879,0,0.3610345369997958
11,573,Decrease,0.25,0.1,0.01995262314968879,1,0.6839439290001792
11,574,Decrease,0.25,0.1,0.015848931924611127,0,0.4796937140004047
11,575,Decrease,0.25,0.1,0.01995262314968879,0,0.5569183560000965
11,576,Control,0.0,0.1,0.031622776601683784,1,0.5098073089998252
11,577,Control,0.0,0.25,0.012589254117941666,0,0.5529397200002677
11,578,Equal,0.25,0.25,0.031622776601683784,1,0.36368970200010153
11,579,Increase,0.1,0.25,0.025118864315095794,0,0.4933890669999528
11,580,Control,0.0,0.25,0.015848931924611127,0,0.4884648699999161
11,581,Decrease_null,0.25,0.1,0.031622776601683784,1,0.3856334590000188
11,582,Decrease_null,0.25,0.1,0.02511886431509579,1,0.26898162899988165
11,583,Control,0.0,0.25,0.01995262314968879,0,0.41698530499979825
11,584,Control,0.0,0.25,0.025118864315095794,1,0.3873046440003236
11,585,Equal,0.25,0.25,0.02511886431509579,1,0.3822773749998305
11,586,Increase,0.1,0.25,0.031622776601683784,1,0.3454918880001969
11,587,Equal,0.1,0.1,0.015848931924611127,0,0.3647411059996557
11,588,Control,0.0,0.25,0.01995262314968879,0,0.3624560590001238
11,589,Control,0.0,0.1,0.02511886431509579,1,0.49011478400007036
11,590,Equal,0.1,0.1,0.01995262314968879,0,0.3812026780001361
11,591,Equal,0.25,0.25,0.01995262314968879,0,0.3923198920001596
11,592,Control,0.0,0.25,0.025118864315095794,1,0.36972844000001714
11,593,Control,0.0,0.25,0.01995262314968879,0,0.6532150309999452
11,594,Increase,0.1,0.25,0.02511886431509579,0,0.39806220599984954
11,595,Equal,0.25,0.25,0.025118864315095794,0,0.5611355549999644
11,596,Control,0.0,0.25,0.025118864315095794,1,0.4846125779999966
11,597,Equal,0.1,0.1,0.025118864315095794,1,0.4237204300002304
11,598,Control,0.0,0.25,0.01995262314968879,0,0.4759462639999583
11,599,Decrease,0.25,0.1,0.025118864315095794,0,0.44019629500007795
11,600,Decrease,0.25,0.1,0.031622776601683784,1,0.41653571199958606
11,601,Control,0.0,0.25,0.025118864315095794,0,0.3140446039997187
11,602,Equal_null,0.1,0.1,0.015848931924611127,1,0.16491729900008067
11,603,Equal,0.1,0.1,0.01995262314968879,1,0.38125767600013205
11,604,Increase,0.1,0.25,0.031622776601683784,1,0.3126217409999299
11,605,Equal,0.25,0.25,0.031622776601683784,1,0.2927118390002761
11,606,Equal,0.1,0.1,0.015848931924611127,0,0.3728230129995609
11,607,Control,0.0,0.25,0.031622776601683784,1,0.560337110999626
11,608,Control,0.0,0.25,0.02511886431509579,1,0.3222152179996556
11,609,Control,0.0,0.1,0.01995262314968879,0,0.36521373899995524
11,610,Equal,0.1,0.1,0.01995262314968879,1,0.4097145109999474
11,611,Increase,0.1,0.25,0.02511886431509579,1,0.32497670799966727
11,612,Equal,0.25,0.25,0.02511886431509579,1,0.38517001599984724
11,613,Equal,0.25,0.25,0.01995262314968879,0,0.38311053000006723
11,614,Equal,0.1,0.1,0.015848931924611127,0,0.48835452699995585
11,615,Control,0.0,0.25,0.01995262314968879,0,0.33962602599967795
11,616,Equal,0.1,0.1,0.01995262314968879,0,0.49998150000010355
11,617,Equal,0.25,0.25,0.025118864315095794,1,0.3428294029999961
11,618,Control,0.0,0.1,0.025118864315095794,0,0.3791046279998227
11,619,Increase_null,0.1,0.25,0.009999999999999995,0,0.3874509299998863
11,620,Control_null,0.0,0.1,0.005011872336272719,1,0.5666112120002254
11,621,Decrease,0.25,0.1,0.02511886431509579,1,0.4324758509997082
11,622,Decrease,0.25,0.1,0.01995262314968879,0,0.756094886000028
11,623,Control,0.0,0.25,0.025118864315095794,1,0.5042878770000243
11,624,Equal,0.25,0.25,0.01995262314968879,0,0.36341522100019574
11,625,Decrease,0.25,0.1,0.025118864315095794,0,0.4646605120001368
11,626,Equal,0.25,0.25,0.025118864315095794,0,0.405236357999911
11,627,Equal,0.25,0.25,0.031622776601683784,1,0.430759303999821
11,628,Control,0.0,0.1,0.031622776601683784,1,0.4102000760003648
11,629,Equal,0.25,0.25,0.02511886431509579,1,0.32991717300001255
11,630,Control,0.0,0.1,0.02511886431509579,1,0.34936200399988593
11,631,Control,0.0,0.1,0.01995262314968879,0,0.5207491989999653
11,632,Control,0.0,0.1,0.025118864315095794,0,0.3778979740000068
11,633,Equal,0.1,0.1,0.025118864315095794,0,0.35667779000004884
11,634,Equal,0.25,0.25,0.01995262314968879,0,0.5682198770000468
11,635,Increase_null,0.1,0.25,0.012589254117941666,1,0.4833807439999873
11,636,Control_null,0.0,0.25,0.031622776601683784,1,0.38256662399999186
11,637,Increase,0.1,0.25,0.01995262314968879,0,0.4335221660003299
11,638,Decrease,0.25,0.1,0.031622776601683784,1,0.34263026600001467
11,639,Control,0.0,0.25,0.01995262314968879,1,0.34756945800018
11,640,Equal,0.25,0.25,0.025118864315095794,1,0.6453910830000495
11,641,Control,0.0,0.1,0.031622776601683784,1,0.368192645000363
11,642,Decrease,0.25,0.1,0.02511886431509579,1,0.28067149500020605
11,643,Equal,0.25,0.25,0.01995262314968879,1,0.3958883099999184
11,644,Equal,0.25,0.25,0.015848931924611127,0,0.343197648000114
11,645,Equal,0.1,0.1,0.031622776601683784,1,0.3520965430002434
11,646,Increase,0.1,0.25,0.025118864315095794,1,0.4113237050000862
11,647,Decrease,0.25,0.1,0.01995262314968879,0,0.3266123680000419
11,648,Control,0.0,0.25,0.015848931924611127,0,0.3854962999998861
11,649,Control,0.0,0.25,0.01995262314968879,0,0.3412044690003313
11,650,Decrease_null,0.25,0.1,0.01995262314968879,1,0.32813793900004384
11,651,Increase,0.1,0.25,0.01995262314968879,0,0.28452156399998785
11,652,Control,0.0,0.1,0.02511886431509579,0,0.12978242799999862
11,653,Equal,0.1,0.1,0.02511886431509579,0,0.09820753300027718
11,654,Equal,0.1,0.1,0.031622776601683784,1,0.5980247659999804
11,655,Control,0.0,0.1,0.031622776601683784,1,0.3429964070001006
11,656,Control,0.0,0.1,0.02511886431509579,1,0.40213156900017566
11,657,Equal,0.25,0.25,0.01995262314968879,0,0.3654440219997923
11,658,Control,0.0,0.25,0.025118864315095794,0,0.32558749399959197
11,659,Decrease,0.25,0.1,0.025118864315095794,0,0.3048378970001977
11,660,Decrease,0.25,0.1,0.031622776601683784,0,0.5561939229996824
11,661,Equal,0.25,0.25,0.025118864315095794,0,0.4073131589998411
11,662,Control,0.0,0.25,0.031622776601683784,1,0.3540176760002396
11,663,Increase,0.1,0.25,0.025118864315095794,1,0.4131858360001388
11,664,Equal,0.25,0.25,0.031622776601683784,1,0.3618976829998246
11,665,Control,0.0,0.1,0.01995262314968879,1,0.3913896270000805
11,666,Equal_null,0.1,0.1,0.012589254117941666,1,0.42433276700012357
11,667,Equal,0.1,0.1,0.02511886431509579,0,0.2914783770002032
11,668,Increase,0.1,0.25,0.01995262314968879,0,0.4592176730002393
11,669,Equal,0.1,0.1,0.031622776601683784,1,0.45467014799987737
11,670,Increase,0.1,0.25,0.025118864315095794,1,0.44199181299973134
11,671,Decrease_null,0.25,0.1,0.015848931924611127,1,0.44304755899975135
11,672,Equal,0.1,0.1,0.02511886431509579,0,0.5261621760000708
11,673,Increase_null,0.1,0.25,0.009999999999999995,1,0.5855373680001321
11,674,Increase,0.1,0.25,0.01995262314968879,0,0.42153638299987506
11,675,Control,0.0,0.1,0.015848931924611127,0,0.5289628790001188
11,676,Control,0.0,0.25,0.02511886431509579,1,0.48396243800016236
11,677,Increase,0.1,0.25,0.025118864315095794,1,0.4167253760001586
11,678,Control,0.0,0.25,0.01995262314968879,0,0.41326006999997844
11,679,Decrease,0.25,0.1,0.03981071705534971,1,0.3734531469999638
11,680,Increase,0.1,0.25,0.01995262314968879,0,0.36052714700008437
11,681,Control,0.0,0.25,0.025118864315095794,1,0.37779655099984666
11,682,Control,0.0,0.25,0.01995262314968879,1,0.42111892299999454
11,683,Control,0.0,0.25,0.015848931924611127,0,0.3667966200000592
11,684,Equal,0.25,0.25,0.02511886431509579,1,0.3604424489999474
11,685,Increase,0.1,0.25,0.025118864315095794,1,0.3960394840000845
11,686,Decrease,0.25,0.1,0.031622776601683784,1,0.4069650929995987
11,687,Equal,0.1,0.1,0.031622776601683784,1,0.4339500589999261
11,688,Decrease_null,0.25,0.1,0.012589254117941666,1,0.31813719799993123
11,689,Control,0.0,0.25,0.01995262314968879,0,0.4412738949999948
11,690,Control,0.0,0.25,0.025118864315095794,1,0.6939798549997249
11,691,Equal,0.1,0.1,0.02511886431509579,0,0.3703623209999023
11,692,Control,0.0,0.1,0.01995262314968879,0,0.37907556399977693
11,693,Decrease_null,0.25,0.1,0.009999999999999995,1,0.4780961579999712
11,694,Control,0.0,0.25,0.01995262314968879,1,0.4061045799999192
11,695,Control,0.0,0.1,0.025118864315095794,1,0.3375517879999279
11,696,Control,0.0,0.25,0.015848931924611127,1,0.46861102100001517
11,697,Equal,0.25,0.25,0.01995262314968879,0,0.3666900309999619
11,698,Decrease,0.25,0.1,0.02511886431509579,0,0.43408687100009047
11,699,Increase,0.1,0.25,0.01995262314968879,0,0.39711542299983194
11,700,Increase,0.1,0.25,0.025118864315095794,0,0.560519966999891
11,701,Equal,0.1,0.1,0.031622776601683784,1,0.42752917799998613
11,702,Equal,0.1,0.1,0.02511886431509579,0,0.4547772480000276
11,703,Decrease,0.25,0.1,0.031622776601683784,1,0.47539994599992497
11,704,Equal,0.25,0.25,0.025118864315095794,1,0.4142074819997106
11,705,Control,0.0,0.25,0.012589254117941666,0,0.3678383959995699
11,706,Equal,0.25,0.25,0.01995262314968879,1,0.44237206500019965
11,707,Control,0.0,0.1,0.01995262314968879,0,0.4502327180002794
11,708,Increase,0.1,0.25,0.031622776601683784,1,0.5339654869999322
11,709,Decrease_null,0.25,0.1,0.00794328234724281,1,0.3441284860000451
11,710,Control,0.0,0.25,0.015848931924611127,0,0.41127231500013295
11,711,Control,0.0,0.1,0.025118864315095794,0,0.5582185479997861
11,712,Increase,0.1,0.25,0.02511886431509579,0,0.5374449880000611
11,713,Decrease,0.25,0.1,0.02511886431509579,0,0.5087303280001834
11,714,Equal,0.25,0.25,0.015848931924611127,1,0.40019994500016765
11,715,Decrease,0.25,0.1,0.031622776601683784,1,0.5641373630000999
11,716,Decrease,0.25,0.1,0.02511886431509579,0,0.4092404789998909
11,717,Control,0.0,0.25,0.01995262314968879,0,0.3810725440002898
11,718,Decrease,0.25,0.1,0.031622776601683784,1,0.4208402060003209
11,719,Decrease,0.25,0.1,0.02511886431509579,0,0.40779484299991964
11,720,Decrease,0.25,0.1,0.031622776601683784,1,0.4726562880000529
11,721,Control,0.0,0.25,0.025118864315095794,1,0.4038226800003031
11,722,Control_null,0.0,0.25,0.02511886431509579,1,0.31198963099996035
11,723,Increase,0.1,0.25,0.031622776601683784,1,0.31433422300005986
11,724,Control,0.0,0.25,0.01995262314968879,0,0.20556133999980375
11,725,Control,0.0,0.25,0.025118864315095794,0,0.1745952109999962
11,726,Control,0.0,0.25,0.031622776601683784,1,0.3214886020000449
11,727,Control,0.0,0.25,0.02511886431509579,1,0.3619474900001478
11,728,Increase_null,0.1,0.25,0.00794328234724281,1,0.3169407800000954
11,729,Decrease_null,0.25,0.1,0.0063095734448019285,1,0.20717235399979472
11,730,Equal,0.1,0.1,0.031622776601683784,1,0.2916074390000176
11,731,Decrease,0.25,0.1,0.02511886431509579,1,0.28669625800012
11,732,Increase,0.1,0.25,0.02511886431509579,1,0.3286230609996892
11,733,Decrease,0.25,0.1,0.01995262314968879,0,0.3162201830000413
11,734,Control,0.0,0.1,0.031622776601683784,1,0.37622833199975503
11,735,Increase,0.1,0.25,0.01995262314968879,0,0.34068543500006854
11,736,Equal,0.25,0.25,0.012589254117941666,0,0.2227319339999667
11,737,Control,0.0,0.25,0.01995262314968879,0,0.24267830999997386
11,738,Control,0.0,0.25,0.025118864315095794,1,0.3631638470001235
11,739,Decrease,0.25,0.1,0.025118864315095794,1,0.35127667100005056
11,740,Equal,0.1,0.1,0.02511886431509579,1,0.255339038999864
11,741,Decrease,0.25,0.1,0.01995262314968879,0,0.2904877960004342
11,742,Equal,0.25,0.25,0.015848931924611127,0,0.2846545409997816
11,743,Control_null,0.0,0.25,0.01995262314968879,1,0.3758948659997259
11,744,Equal,0.1,0.1,0.01995262314968879,0,0.3243693600002189
11,745,Control,0.0,0.25,0.01995262314968879,0,0.3433169600002657
11,746,Equal,0.1,0.1,0.025118864315095794,1,0.33054544800006624
11,747,Decrease,0.25,0.1,0.025118864315095794,1,0.35966377899967483
11,748,Decrease,0.25,0.1,0.01995262314968879,0,0.34925416699979905
11,749,Equal,0.1,0.1,0.01995262314968879,0,0.4129673060001551
11,750,Control_null,0.0,0.25,0.015848931924611127,1,0.3684189390000938
11,751,Equal,0.1,0.1,0.025118864315095794,0,0.6493507130003309
11,752,Increase,0.1,0.25,0.025118864315095794,1,0.5399638240000968
11,753,Control,0.0,0.25,0.025118864315095794,1,0.3807209699998566
11,754,Control,0.0,0.1,0.02511886431509579,1,0.287973872999828
11,755,Equal,0.1,0.1,0.031622776601683784,1,0.3231111330001113
11,756,Control,0.0,0.1,0.01995262314968879,0,0.366142587000013
11,757,Equal,0.25,0.25,0.01995262314968879,0,0.4733649400000104
11,758,Equal,0.25,0.25,0.025118864315095794,1,0.3967528279999897
11,759,Decrease,0.25,0.1,0.025118864315095794,1,0.26496171200005847
11,760,Decrease_null,0.25,0.1,0.005011872336272719,1,0.2852520039996307
11,761,Control_null,0.0,0.25,0.012589254117941666,1,0.32268966999981785
11,762,Equal,0.1,0.1,0.02511886431509579,1,0.30765760200029035
11,763,Control,0.0,0.25,0.01995262314968879,0,0.3267074099999263
11,764,Decrease,0.25,0.1,0.01995262314968879,0,0.2307348849999471
11,765,Control,0.0,0.25,0.025118864315095794,0,0.3057244179999543
11,766,Equal,0.25,0.25,0.01995262314968879,0,0.2673662800002603
11,767,Control,0.0,0.1,0.025118864315095794,1,0.36663941100005104
11,768,Control,0.0,0.1,0.01995262314968879,0,0.2404724820003139
11,769,Control,0.0,0.25,0.031622776601683784,0,0.34837794699978986
11,770,Control,0.0,0.1,0.025118864315095794,1,0.41600251499994556
11,771,Control,0.0,0.25,0.03981071705534971,1,0.3712457879996691
11,772,Decrease,0.25,0.1,0.025118864315095794,1,0.294216717999916
11,773,Control,0.0,0.25,0.031622776601683784,1,0.32309574700002486
11,774,Control,0.0,0.1,0.01995262314968879,0,0.33640477600010854
11,775,Control_null,0.0,0.25,0.009999999999999995,1,0.280874034000135
11,776,Decrease,0.25,0.1,0.01995262314968879,0,0.29988833299967155
11,777,Control_null,0.0,0.25,0.00794328234724281,1,0.3400901760001034
11,778,Equal,0.25,0.25,0.025118864315095794,1,0.41663628800006336
11,779,Decrease,0.25,0.1,0.025118864315095794,1,0.23241292700004124
11,780,Equal,0.1,0.1,0.01995262314968879,0,0.2757809170002474
11,781,Increase,0.1,0.25,0.01995262314968879,0,0.1502860960004
11,782,Equal,0.1,0.1,0.025118864315095794,0,0.31319323600018834
11,783,Control,0.0,0.1,0.025118864315095794,0,0.3403505960000075
11,784,Control_null,0.0,0.25,0.0063095734448019285,1,0.24727587300003506
11,785,Equal,0.25,0.25,0.01995262314968879,0,0.39457221699967704
11,786,Control,0.0,0.1,0.031622776601683784,1,0.3832428729997446
11,787,Control,0.0,0.1,0.02511886431509579,1,0.2846112639999774
11,788,Control_null,0.0,0.25,0.005011872336272719,1,0.34928473799982385
11,789,Control,0.0,0.1,0.01995262314968879,0,0.09618624099994122
11,790,Decrease,0.25,0.1,0.01995262314968879,0,0.34482550500024445
11,791,Increase,0.1,0.25,0.025118864315095794,1,0.3490681459998086
11,792,Control,0.0,0.1,0.025118864315095794,0,0.27681697500020164
11,793,Equal,0.25,0.25,0.025118864315095794,0,0.2720260870000857
11,794,Equal,0.25,0.25,0.031622776601683784,1,0.5556192359999841
11,795,Increase,0.1,0.25,0.01995262314968879,0,0.29438901100002113
11,796,Decrease,0.25,0.1,0.025118864315095794,0,0.153641172999869
11,797,Control,0.0,0.1,0.031622776601683784,1,0.4539099389999137
11,798,Increase,0.1,0.25,0.025118864315095794,1,0.3290921470002104
11,799,Control,0.0,0.1,0.02511886431509579,0,0.3504018119997454
11,800,Control,0.0,0.1,0.031622776601683784,1,0.34697153499973865
11,801,Decrease,0.25,0.1,0.031622776601683784,1,0.39547634500013373
11,802,Decrease,0.25,0.1,0.02511886431509579,1,0.2950120089999473
11,803,Increase,0.1,0.25,0.01995262314968879,1,0.36726075700016736
11,804,Decrease,0.25,0.1,0.01995262314968879,1,0.33912002900024163
11,805,Control,0.0,0.1,0.02511886431509579,1,0.43529600799956825
11,806,Increase,0.1,0.25,0.015848931924611127,0,0.3744077629999083
11,807,Increase,0.1,0.25,0.01995262314968879,0,0.27360542300039015
11,808,Increase,0.1,0.25,0.025118864315095794,0,0.6063163019998683
11,809,Control,0.0,0.1,0.01995262314968879,0,0.44913974100018095
11,810,Increase,0.1,0.25,0.031622776601683784,1,0.4123938160000762
11,811,Control,0.0,0.1,0.025118864315095794,1,0.4233349750002162
11,812,Increase,0.1,0.25,0.02511886431509579,1,0.2923572930003502
11,813,Increase,0.1,0.25,0.01995262314968879,1,0.3367301889998089
11,814,Increase,0.1,0.25,0.015848931924611127,1,0.25722241100038445
11,815,Control,0.0,0.1,0.01995262314968879,0,0.3572396229997139
11,816,Decrease,0.25,0.1,0.015848931924611127,0,0.41351838499986115
11,817,Equal,0.1,0.1,0.031622776601683784,0,0.4166843319999316
11,818,Control,0.0,0.1,0.025118864315095794,1,0.43395307800028604
11,819,Decrease,0.25,0.1,0.01995262314968879,1,0.34908259099984207
11,820,Increase,0.1,0.25,0.012589254117941666,0,0.41627551200008384
11,821,Control,0.0,0.1,0.01995262314968879,0,0.4351219609998225
11,822,Decrease,0.25,0.1,0.015848931924611127,0,0.34257240500028274
11,823,Control,0.0,0.1,0.025118864315095794,0,0.41890762000002724
11,824,Increase,0.1,0.25,0.015848931924611127,0,0.38997619300016595
11,825,Equal,0.1,0.1,0.03981071705534971,1,0.41776920200027234
11,826,Control,0.0,0.1,0.031622776601683784,1,0.4067127230000551
11,827,Control,0.0,0.1,0.02511886431509579,1,0.27752909800028647
11,828,Control,0.0,0.1,0.01995262314968879,1,0.769742142999803
11,829,Decrease,0.25,0.1,0.01995262314968879,0,0.40996741800017844
11,830,Equal,0.1,0.1,0.031622776601683784,1,0.3731363139995665
11,831,Increase,0.1,0.25,0.01995262314968879,0,0.34123506300011286
11,832,Increase,0.1,0.25,0.025118864315095794,0,0.273536280999906
11,833,Decrease,0.25,0.1,0.025118864315095794,0,0.3798068000000967
11,834,Control,0.0,0.1,0.015848931924611127,0,0.27172288799965827
11,835,Decrease,0.25,0.1,0.031622776601683784,1,0.4270406609998645
11,836,Increase,0.1,0.25,0.031622776601683784,1,0.33467370500011384
11,837,Control,0.0,0.1,0.01995262314968879,1,0.27336371900037193
11,838,Increase,0.1,0.25,0.02511886431509579,1,0.42222826599982
11,839,Increase,0.1,0.25,0.01995262314968879,0,0.2511930820000998
