Participant_Number,Trial_Number,Condition,FC_distal,FC_proximal,Target_Contrast,Correct_Response,Reaction_Time
8,0,Control,0.0,0.1,0.1,1,1.2216468970000278
8,1,Decrease,0.25,0.1,0.1,1,0.866475630999048
8,2,Equal,0.1,0.1,0.1,0,99
8,3,Equal,0.25,0.25,0.1,0,0.35859775400240324
8,4,Increase,0.1,0.25,0.1,0,99
8,5,Increase,0.1,0.25,0.1,1,0.4821412170022086
8,6,Control,0.0,0.25,0.1,1,0.45926307099944097
8,7,Equal,0.25,0.25,0.1,1,0.5103048179989855
8,8,Control,0.0,0.25,0.07943282347242815,1,0.2734334160013532
8,9,Decrease,0.25,0.1,0.07943282347242815,1,0.2765266579990566
8,10,Equal,0.1,0.1,0.1,1,0.6157439429989608
8,11,Decrease_null,0.25,0.1,0.1,1,0.6992769330026931
8,12,Control,0.0,0.1,0.07943282347242815,1,0.3593689909976092
8,13,Increase,0.1,0.25,0.07943282347242815,1,0.5002405049999652
8,14,Equal,0.1,0.1,0.07943282347242815,1,0.5998796519997995
8,15,Equal,0.1,0.1,0.06309573444801932,1,0.6250522209993505
8,16,Control,0.0,0.1,0.06309573444801932,1,0.49181628699807334
8,17,Decrease,0.25,0.1,0.06309573444801932,1,0.26846373899752507
8,18,Control,0.0,0.25,0.06309573444801932,1,0.4003814669995336
8,19,Decrease,0.25,0.1,0.05011872336272722,1,0.5846500219995505
8,20,Control,0.0,0.1,0.05011872336272722,1,0.3636743530005333
8,21,Control,0.0,0.25,0.05011872336272722,1,0.5199521940012346
8,22,Control,0.0,0.1,0.03981071705534971,1,0.45936859599896707
8,23,Control,0.0,0.25,0.03981071705534971,1,0.42251032299827784
8,24,Equal,0.1,0.1,0.05011872336272722,1,0.3937162010006432
8,25,Control,0.0,0.25,0.031622776601683784,1,0.4528189070006192
8,26,Control,0.0,0.1,0.031622776601683784,1,0.40132334499867284
8,27,Control,0.0,0.25,0.02511886431509579,1,0.6448458429986204
8,28,Equal,0.25,0.25,0.07943282347242815,1,0.5905057519994443
8,29,Increase_null,0.1,0.25,0.1,0,0.545509592997405
8,30,Equal,0.1,0.1,0.03981071705534971,1,0.33779605500239995
8,31,Equal,0.25,0.25,0.06309573444801932,1,0.36477220300002955
8,32,Control,0.0,0.1,0.02511886431509579,1,0.765706477999629
8,33,Increase,0.1,0.25,0.06309573444801932,1,0.4101663319997897
8,34,Equal,0.1,0.1,0.031622776601683784,1,0.43749202899925876
8,35,Decrease_null,0.25,0.1,0.07943282347242815,0,99
8,36,Control,0.0,0.25,0.01995262314968879,1,0.4919408870009647
8,37,Control,0.0,0.1,0.01995262314968879,1,0.4147545779997017
8,38,Equal,0.1,0.1,0.02511886431509579,1,0.618097417998797
8,39,Decrease,0.25,0.1,0.03981071705534971,1,0.6538206160003028
8,40,Increase,0.1,0.25,0.05011872336272722,1,0.6345257819994004
8,41,Decrease_null,0.25,0.1,0.1,1,0.6596034709982632
8,42,Control_null,0.0,0.1,0.1,1,0.5989697320001142
8,43,Increase,0.1,0.25,0.03981071705534971,1,0.7352611960013746
8,44,Control,0.0,0.25,0.015848931924611127,1,0.6900516999994579
8,45,Control,0.0,0.25,0.012589254117941666,1,0.675509200002125
8,46,Increase,0.1,0.25,0.031622776601683784,1,0.7026848169989535
8,47,Equal,0.1,0.1,0.01995262314968879,1,0.7460932030007825
8,48,Increase,0.1,0.25,0.02511886431509579,1,0.7342518050027138
8,49,Control,0.0,0.25,0.009999999999999995,0,0.6251326309975411
8,50,Increase,0.1,0.25,0.01995262314968879,1,0.6600644169993757
8,51,Decrease,0.25,0.1,0.031622776601683784,1,0.6153576799988514
8,52,Equal,0.25,0.25,0.05011872336272722,1,0.9149286379979458
8,53,Control,0.0,0.1,0.015848931924611127,1,0.7820123790006619
8,54,Control,0.0,0.25,0.012589254117941666,1,0.7434374629992817
8,55,Decrease,0.25,0.1,0.02511886431509579,1,0.7221994119972805
8,56,Equal,0.25,0.25,0.03981071705534971,1,0.6506072020019928
8,57,Control,0.0,0.25,0.009999999999999995,1,0.6840563929981727
8,58,Control,0.0,0.25,0.00794328234724281,0,0.7887596059990756
8,59,Increase,0.1,0.25,0.015848931924611127,1,0.872380021999561
8,60,Decrease_null,0.25,0.1,0.07943282347242815,1,0.7553176379988145
8,61,Equal,0.25,0.25,0.031622776601683784,1,0.6555929940004717
8,62,Decrease,0.25,0.1,0.01995262314968879,1,0.6587538109997695
8,63,Equal,0.25,0.25,0.02511886431509579,1,0.7027249450002273
8,64,Decrease,0.25,0.1,0.015848931924611127,1,0.8731320490005601
8,65,Control,0.0,0.25,0.009999999999999995,1,0.70908749299997
8,66,Control,0.0,0.25,0.00794328234724281,1,0.8014293970009021
8,67,Increase,0.1,0.25,0.012589254117941666,1,0.8977285639994079
8,68,Control,0.0,0.25,0.0063095734448019285,0,0.7180083729981561
8,69,Control_null,0.0,0.25,0.1,1,0.6540886260008847
8,70,Increase,0.1,0.25,0.009999999999999995,1,0.5372073459984676
8,71,Increase,0.1,0.25,0.00794328234724281,1,0.6991085530025885
8,72,Equal,0.25,0.25,0.01995262314968879,1,0.5904731529990386
8,73,Equal,0.25,0.25,0.015848931924611127,1,0.7773652539981413
8,74,Increase,0.1,0.25,0.0063095734448019285,0,0.6846273680021113
8,75,Control,0.0,0.25,0.00794328234724281,0,0.8651085380006407
8,76,Increase,0.1,0.25,0.00794328234724281,0,0.7175748139998177
8,77,Increase,0.1,0.25,0.009999999999999995,1,0.6474162010017608
8,78,Decrease,0.25,0.1,0.012589254117941666,1,0.8196680459986965
8,79,Control,0.0,0.1,0.012589254117941666,0,0.7754711720008345
8,80,Control,0.0,0.1,0.015848931924611127,1,0.6319687940012955
8,81,Decrease,0.25,0.1,0.009999999999999995,0,0.6761422410017985
8,82,Control,0.0,0.1,0.012589254117941666,0,1.0445361749989388
8,83,Decrease,0.25,0.1,0.012589254117941666,1,0.7356145560006553
8,84,Equal,0.1,0.1,0.015848931924611127,1,0.7937543869993533
8,85,Equal,0.25,0.25,0.012589254117941666,1,0.8920029009968857
8,86,Control,0.0,0.25,0.009999999999999995,0,0.9910631829989143
8,87,Control,0.0,0.1,0.015848931924611127,0,1.0032518480002182
8,88,Decrease,0.25,0.1,0.009999999999999995,1,0.5586952620033117
8,89,Control,0.0,0.1,0.01995262314968879,1,0.5012031650003337
8,90,Equal,0.1,0.1,0.012589254117941666,0,0.7017359929996019
8,91,Increase,0.1,0.25,0.00794328234724281,0,0.3777737709970097
8,92,Increase_null,0.1,0.25,0.1,1,0.5108271140015859
8,93,Equal_null,0.25,0.25,0.1,1,0.17547797800216358
8,94,Decrease,0.25,0.1,0.00794328234724281,0,0.29854293199969106
8,95,Decrease,0.25,0.1,0.009999999999999995,1,0.5797289779984567
8,96,Control,0.0,0.1,0.015848931924611127,1,0.5669884829985676
8,97,Equal,0.1,0.1,0.015848931924611127,1,0.577174442998512
8,98,Equal,0.25,0.25,0.009999999999999995,1,1.1164549559980514
8,99,Equal,0.25,0.25,0.00794328234724281,0,0.5914352920008241
8,100,Increase,0.1,0.25,0.009999999999999995,0,0.6186615579972568
8,101,Increase,0.1,0.25,0.012589254117941666,0,0.3846749540025485
8,102,Equal,0.1,0.1,0.012589254117941666,0,0.1953108230009093
8,103,Equal,0.1,0.1,0.015848931924611127,0,0.39769284700014396
8,104,Increase,0.1,0.25,0.015848931924611127,0,0.4495870860009745
8,105,Equal,0.25,0.25,0.009999999999999995,1,0.5085097980008868
8,106,Control,0.0,0.1,0.012589254117941666,0,0.8057449870029814
8,107,Increase,0.1,0.25,0.01995262314968879,1,0.545008050998149
8,108,Decrease_null,0.25,0.1,0.06309573444801932,1,0.6893601589981699
8,109,Equal_null,0.1,0.1,0.1,1,0.6282304550004483
8,110,Equal,0.1,0.1,0.01995262314968879,1,0.6795742130016151
8,111,Increase,0.1,0.25,0.015848931924611127,1,0.6586508779982978
8,112,Equal,0.25,0.25,0.00794328234724281,0,0.6539784859996871
8,113,Increase,0.1,0.25,0.012589254117941666,0,0.5532635059971653
8,114,Increase,0.1,0.25,0.015848931924611127,0,0.5420490610013076
8,115,Equal,0.25,0.25,0.009999999999999995,0,0.7374407989991596
8,116,Equal,0.25,0.25,0.012589254117941666,0,0.8926950210006908
8,117,Equal,0.1,0.1,0.015848931924611127,1,0.5899213980010245
8,118,Increase,0.1,0.25,0.01995262314968879,1,0.713261582000996
8,119,Decrease_null,0.25,0.1,0.05011872336272722,1,0.778227426999365
8,120,Decrease,0.25,0.1,0.00794328234724281,1,0.5725277390010888
8,121,Control,0.0,0.1,0.015848931924611127,1,0.6733228479970421
8,122,Decrease,0.25,0.1,0.0063095734448019285,0,0.676704420002352
8,123,Decrease,0.25,0.1,0.00794328234724281,0,0.33601487499981886
8,124,Control,0.0,0.1,0.012589254117941666,0,0.5441589629990631
8,125,Control,0.0,0.1,0.015848931924611127,1,0.3232859810013906
8,126,Control,0.0,0.1,0.012589254117941666,1,0.7405552480013284
8,127,Equal_null,0.1,0.1,0.07943282347242815,1,1.039836126998125
8,128,Equal,0.1,0.1,0.012589254117941666,1,0.7706678190006642
8,129,Equal,0.25,0.25,0.015848931924611127,1,0.5726827580001554
8,130,Control_null,0.0,0.1,0.07943282347242815,1,1.1120564589982678
8,131,Equal,0.1,0.1,0.009999999999999995,1,0.7149713639992115
8,132,Decrease,0.25,0.1,0.009999999999999995,1,0.7986894860005123
8,133,Decrease,0.25,0.1,0.00794328234724281,0,0.755984534000163
8,134,Increase,0.1,0.25,0.015848931924611127,1,0.6101614239996707
8,135,Increase,0.1,0.25,0.012589254117941666,0,0.6180954859992198
8,136,Control_null,0.0,0.25,0.07943282347242815,1,0.917196738999337
8,137,Equal,0.25,0.25,0.012589254117941666,1,0.8374238739997963
8,138,Decrease,0.25,0.1,0.009999999999999995,0,0.6416042630007723
8,139,Increase,0.1,0.25,0.015848931924611127,1,0.5058713969992823
8,140,Control,0.0,0.1,0.009999999999999995,0,0.7489933700016991
8,141,Increase,0.1,0.25,0.012589254117941666,1,0.6881990080000833
8,142,Equal,0.1,0.1,0.00794328234724281,0,0.49943735700071556
8,143,Equal_null,0.1,0.1,0.06309573444801932,1,0.9426203900002292
8,144,Control,0.0,0.25,0.012589254117941666,0,0.6655953519984905
8,145,Control,0.0,0.25,0.015848931924611127,1,0.31680295700061833
8,146,Equal,0.1,0.1,0.009999999999999995,0,0.48234240600140765
8,147,Decrease,0.25,0.1,0.012589254117941666,0,0.32608967600026517
8,148,Equal,0.1,0.1,0.012589254117941666,1,0.2716071029972227
8,149,Control,0.0,0.1,0.012589254117941666,1,0.5477487489988562
8,150,Control,0.0,0.1,0.009999999999999995,1,0.7240023160011333
8,151,Equal,0.1,0.1,0.009999999999999995,0,0.7510192709996772
8,152,Increase,0.1,0.25,0.009999999999999995,1,0.9669883170026878
8,153,Increase,0.1,0.25,0.00794328234724281,1,0.6346502749984211
8,154,Equal,0.1,0.1,0.012589254117941666,1,0.7575482110005396
8,155,Increase,0.1,0.25,0.0063095734448019285,0,0.6087452600004326
8,156,Control_null,0.0,0.25,0.06309573444801932,0,0.5483324599990738
8,157,Equal,0.1,0.1,0.009999999999999995,1,0.5513676269983989
8,158,Decrease,0.25,0.1,0.015848931924611127,1,0.5624981219989422
8,159,Equal,0.1,0.1,0.00794328234724281,1,0.7597894870013988
8,160,Control_null,0.0,0.25,0.07943282347242814,1,0.5958177709981101
8,161,Control,0.0,0.25,0.012589254117941666,0,0.6367524470006174
8,162,Increase,0.1,0.25,0.00794328234724281,0,0.5759536109981127
8,163,Increase_null,0.1,0.25,0.07943282347242815,1,0.7284185620010248
8,164,Control,0.0,0.1,0.00794328234724281,1,0.6445068430002721
8,165,Equal,0.1,0.1,0.0063095734448019285,0,0.597036125996965
8,166,Increase,0.1,0.25,0.009999999999999995,1,0.7121094730027835
8,167,Control_null,0.0,0.25,0.06309573444801932,1,0.4589931560003606
8,168,Equal,0.1,0.1,0.00794328234724281,0,0.3582913729987922
8,169,Equal,0.1,0.1,0.009999999999999995,0,0.4331270980001136
8,170,Decrease,0.25,0.1,0.012589254117941666,0,0.5576424239989137
8,171,Control,0.0,0.25,0.015848931924611127,1,0.72894216900022
8,172,Increase,0.1,0.25,0.00794328234724281,0,1.0455769229993166
8,173,Control,0.0,0.25,0.012589254117941666,1,0.6408079100001487
8,174,Equal_null,0.25,0.25,0.07943282347242815,1,0.6106655809999211
8,175,Control,0.0,0.1,0.0063095734448019285,0,1.005781219999335
8,176,Decrease,0.25,0.1,0.015848931924611127,1,0.8776526479996392
8,177,Equal_null,0.25,0.25,0.06309573444801932,1,1.017081802001485
8,178,Control,0.0,0.25,0.009999999999999995,1,0.609228801997233
8,179,Equal,0.1,0.1,0.012589254117941666,1,0.8043755830003647
8,180,Decrease,0.25,0.1,0.012589254117941666,0,0.7115913640009239
8,181,Increase,0.1,0.25,0.009999999999999995,1,0.5306900379982835
8,182,Control,0.0,0.1,0.00794328234724281,0,0.7901304129991331
8,183,Decrease,0.25,0.1,0.015848931924611127,1,1.09748817199943
8,184,Control,0.0,0.1,0.009999999999999995,1,0.7642234949998965
8,185,Decrease,0.25,0.1,0.012589254117941666,0,0.5290341720028664
8,186,Increase,0.1,0.25,0.00794328234724281,1,0.7731524689988873
8,187,Control,0.0,0.1,0.00794328234724281,0,0.5815972310010693
8,188,Decrease,0.25,0.1,0.015848931924611127,1,0.6169939020001038
8,189,Decrease,0.25,0.1,0.012589254117941666,1,0.5531151100003626
8,190,Increase,0.1,0.25,0.0063095734448019285,0,0.629515584998444
8,191,Control,0.0,0.1,0.009999999999999995,1,0.7894896479992894
8,192,Equal,0.25,0.25,0.009999999999999995,1,0.6167382109997561
8,193,Control,0.0,0.25,0.00794328234724281,0,0.7077186010028527
8,194,Equal,0.25,0.25,0.00794328234724281,0,0.815301555001497
8,195,Decrease,0.25,0.1,0.009999999999999995,0,0.6836086469993461
8,196,Equal,0.25,0.25,0.009999999999999995,0,0.49410433099910733
8,197,Control,0.0,0.25,0.009999999999999995,0,0.465831100998912
8,198,Equal,0.25,0.25,0.012589254117941666,0,0.12714697999763303
8,199,Control,0.0,0.1,0.00794328234724281,0,0.09929408400057582
8,200,Equal,0.1,0.1,0.009999999999999995,0,0.19627914000011515
8,201,Control,0.0,0.1,0.009999999999999995,1,0.46343153699854156
8,202,Increase,0.1,0.25,0.00794328234724281,0,0.42357267899933504
8,203,Equal,0.25,0.25,0.015848931924611127,1,0.5949191600011545
8,204,Increase,0.1,0.25,0.009999999999999995,0,0.8681217420016765
8,205,Control,0.0,0.25,0.012589254117941666,0,0.7831677100002707
8,206,Equal,0.25,0.25,0.012589254117941666,0,0.6343909030001669
8,207,Equal,0.25,0.25,0.015848931924611127,0,0.2936369479975838
8,208,Decrease,0.25,0.1,0.012589254117941666,0,0.3689185859984718
8,209,Equal,0.25,0.25,0.01995262314968879,0,0.6921614129969385
8,210,Control,0.0,0.25,0.015848931924611127,1,0.7030369929998415
8,211,Control,0.0,0.1,0.00794328234724281,1,0.652215858001
8,212,Control,0.0,0.25,0.012589254117941666,0,0.625138085000799
8,213,Equal,0.25,0.25,0.025118864315095794,1,0.3938733129980392
8,214,Control,0.0,0.1,0.0063095734448019285,0,0.5649693500017747
8,215,Control,0.0,0.25,0.015848931924611127,0,0.4450583399993775
8,216,Control,0.0,0.25,0.01995262314968879,1,0.5279488529995433
8,217,Equal,0.1,0.1,0.012589254117941666,0,0.6095225130011386
8,218,Control,0.0,0.1,0.00794328234724281,0,0.8926496849999239
8,219,Control_null,0.0,0.1,0.06309573444801932,1,0.7366320840010303
8,220,Control,0.0,0.1,0.009999999999999995,0,0.5881832070008386
8,221,Control,0.0,0.25,0.015848931924611127,0,0.6951603719971899
8,222,Control,0.0,0.1,0.012589254117941666,0,0.730492504000722
8,223,Decrease,0.25,0.1,0.015848931924611127,0,0.6776654460009013
8,224,Decrease,0.25,0.1,0.01995262314968879,0,0.8410650900004839
8,225,Increase,0.1,0.25,0.012589254117941666,1,0.5351668680013972
8,226,Control,0.0,0.1,0.015848931924611127,1,0.5990581229998497
8,227,Control,0.0,0.25,0.01995262314968879,1,0.4580510800005868
8,228,Control,0.0,0.1,0.012589254117941666,0,0.7143899789989518
8,229,Control,0.0,0.1,0.015848931924611127,1,0.614459430998977
8,230,Decrease_null,0.25,0.1,0.03981071705534971,1,0.8060692119979649
8,231,Control,0.0,0.25,0.015848931924611127,0,0.970281490997877
8,232,Equal,0.25,0.25,0.01995262314968879,1,0.6934673840005416
8,233,Equal,0.25,0.25,0.015848931924611127,0,0.5595826979988487
8,234,Control,0.0,0.1,0.012589254117941666,0,0.6107747360001667
8,235,Increase,0.1,0.25,0.009999999999999995,1,0.46276883199971053
8,236,Control,0.0,0.25,0.01995262314968879,0,0.5221358540002257
8,237,Control,0.0,0.1,0.015848931924611127,0,0.7891592019987002
8,238,Equal,0.1,0.1,0.015848931924611127,1,0.7766196519987716
8,239,Equal,0.25,0.25,0.01995262314968879,1,0.6656017879977298
8,240,Equal,0.1,0.1,0.012589254117941666,0,0.6440723849991628
8,241,Equal,0.25,0.25,0.015848931924611127,1,0.41521580799962976
8,242,Equal,0.25,0.25,0.012589254117941666,0,0.7282884070009459
8,243,Equal,0.25,0.25,0.015848931924611127,0,0.6355165160020988
8,244,Control,0.0,0.1,0.01995262314968879,1,0.5725921070006734
8,245,Increase,0.1,0.25,0.00794328234724281,0,0.5279417319979984
8,246,Control,0.0,0.25,0.025118864315095794,1,0.6443792030004261
8,247,Equal,0.1,0.1,0.015848931924611127,1,0.495264869001403
8,248,Increase_null,0.1,0.25,0.06309573444801932,1,0.6024273719995108
8,249,Decrease,0.25,0.1,0.025118864315095794,1,0.3747160470011295
8,250,Control,0.0,0.1,0.015848931924611127,1,0.4830138020006416
8,251,Decrease,0.25,0.1,0.01995262314968879,1,0.5331254039992928
8,252,Increase,0.1,0.25,0.009999999999999995,1,0.5453328879993933
8,253,Increase,0.1,0.25,0.00794328234724281,0,0.8412842090001504
8,254,Increase_null,0.1,0.25,0.05011872336272722,0,0.7486858709999069
8,255,Equal,0.1,0.1,0.012589254117941666,1,0.669902102999913
8,256,Equal,0.25,0.25,0.01995262314968879,1,0.5770223600011377
8,257,Decrease,0.25,0.1,0.015848931924611127,1,0.39505728999938583
8,258,Increase,0.1,0.25,0.009999999999999995,0,0.9263484309994965
8,259,Equal,0.25,0.25,0.015848931924611127,1,0.5373731250001583
8,260,Control,0.0,0.25,0.01995262314968879,1,0.5567435169978125
8,261,Control,0.0,0.1,0.012589254117941666,1,0.5357520659999864
8,262,Equal,0.1,0.1,0.009999999999999995,0,0.5161189469981764
8,263,Equal,0.25,0.25,0.012589254117941666,1,0.5059712850015785
8,264,Increase,0.1,0.25,0.012589254117941666,1,0.6346368230006192
8,265,Decrease,0.25,0.1,0.012589254117941666,0,0.5738850920024561
8,266,Equal,0.1,0.1,0.012589254117941666,0,0.6858866299990041
8,267,Increase,0.1,0.25,0.009999999999999995,1,0.529938593001134
8,268,Control,0.0,0.25,0.015848931924611127,0,0.3463941519985383
8,269,Equal,0.1,0.1,0.015848931924611127,0,0.40521730100226705
8,270,Decrease,0.25,0.1,0.015848931924611127,1,0.6633058169973083
8,271,Increase,0.1,0.25,0.00794328234724281,0,0.5629177599985269
8,272,Equal,0.1,0.1,0.01995262314968879,1,0.9501637749999645
8,273,Control,0.0,0.1,0.009999999999999995,0,0.7142240520006453
8,274,Increase,0.1,0.25,0.009999999999999995,0,0.773450104999938
8,275,Equal,0.25,0.25,0.009999999999999995,1,0.5937513390017557
8,276,Equal,0.25,0.25,0.00794328234724281,1,0.6219540890015196
8,277,Control,0.0,0.25,0.01995262314968879,1,0.5758007580006961
8,278,Control,0.0,0.25,0.015848931924611127,0,0.651055523998366
8,279,Equal,0.25,0.25,0.0063095734448019285,0,0.6043726540010539
8,280,Equal,0.1,0.1,0.015848931924611127,1,0.6554792189999716
8,281,Equal,0.25,0.25,0.00794328234724281,0,0.7836023269992438
8,282,Control,0.0,0.1,0.012589254117941666,1,0.9308468640010688
8,283,Control_null,0.0,0.25,0.05011872336272722,0,0.6856479240013869
8,284,Equal,0.1,0.1,0.012589254117941666,1,0.552294573000836
8,285,Decrease,0.25,0.1,0.012589254117941666,1,0.4594897070019215
8,286,Equal,0.25,0.25,0.009999999999999995,1,0.79062993199841
8,287,Control,0.0,0.1,0.009999999999999995,0,0.5451041660016926
8,288,Equal,0.25,0.25,0.00794328234724281,0,0.46918973500214634
8,289,Equal,0.1,0.1,0.009999999999999995,1,0.7790180039992265
8,290,Control,0.0,0.25,0.01995262314968879,1,0.6514404730005481
8,291,Control,0.0,0.25,0.015848931924611127,1,0.6144861850007146
8,292,Control,0.0,0.1,0.012589254117941666,1,0.9987067059992114
8,293,Increase,0.1,0.25,0.012589254117941666,0,0.5948274269976537
8,294,Increase,0.1,0.25,0.015848931924611127,1,0.5791733419973752
8,295,Control,0.0,0.1,0.009999999999999995,0,0.550468205998186
8,296,Increase,0.1,0.25,0.012589254117941666,0,0.5364092199997685
8,297,Decrease,0.25,0.1,0.009999999999999995,0,0.420575539003039
8,298,Equal,0.25,0.25,0.009999999999999995,0,0.20786795700041694
8,299,Equal,0.1,0.1,0.00794328234724281,1,0.5469913259985333
8,300,Equal,0.1,0.1,0.0063095734448019285,0,0.5986550839988922
8,301,Control,0.0,0.25,0.012589254117941666,1,0.580088540998986
8,302,Control,0.0,0.25,0.009999999999999995,0,0.7369299630008754
8,303,Equal,0.25,0.25,0.012589254117941666,0,0.6968999179989623
8,304,Equal,0.1,0.1,0.00794328234724281,0,0.6441397039998265
8,305,Equal,0.25,0.25,0.015848931924611127,1,0.7572829980017559
8,306,Decrease,0.25,0.1,0.012589254117941666,0,0.6404822879994754
8,307,Equal,0.1,0.1,0.009999999999999995,0,0.7043518110003788
8,308,Decrease,0.25,0.1,0.015848931924611127,1,0.5233444090008561
8,309,Increase,0.1,0.25,0.015848931924611127,1,0.790864591999707
8,310,Equal,0.1,0.1,0.012589254117941666,0,99
8,311,Control,0.0,0.1,0.012589254117941666,0,0.8772190319978108
8,312,Decrease,0.25,0.1,0.012589254117941666,0,0.6574692750000395
8,313,Control,0.0,0.25,0.012589254117941666,0,0.21287058099915157
8,314,Equal,0.25,0.25,0.012589254117941666,0,0.5376370060002955
8,315,Decrease,0.25,0.1,0.015848931924611127,1,0.4937086409991025
8,316,Decrease,0.25,0.1,0.012589254117941666,0,0.5031794089991308
8,317,Equal,0.1,0.1,0.015848931924611127,0,99
8,318,Increase,0.1,0.25,0.012589254117941666,0,0.5867213089986762
8,319,Equal,0.1,0.1,0.01995262314968879,1,0.5336938389991701
8,320,Equal,0.1,0.1,0.015848931924611127,1,0.5739429919995018
8,321,Equal,0.25,0.25,0.015848931924611127,1,0.5621929740009364
8,322,Decrease,0.25,0.1,0.015848931924611127,1,0.49334440600068774
8,323,Decrease,0.25,0.1,0.012589254117941666,0,0.7365339800016955
8,324,Equal,0.1,0.1,0.012589254117941666,0,0.6906456670003536
8,325,Increase,0.1,0.25,0.015848931924611127,1,0.49485550099780085
8,326,Control,0.0,0.25,0.015848931924611127,1,0.5942953819976537
8,327,Control,0.0,0.25,0.012589254117941666,0,0.6552463709995209
8,328,Decrease,0.25,0.1,0.015848931924611127,1,0.4843657630008238
8,329,Increase,0.1,0.25,0.012589254117941666,0,0.6276575560004858
8,330,Control,0.0,0.25,0.015848931924611127,1,0.35188941399974283
8,331,Control,0.0,0.25,0.012589254117941666,0,0.5360456320013327
8,332,Equal_null,0.25,0.25,0.05011872336272722,0,0.5392601230014407
8,333,Decrease,0.25,0.1,0.012589254117941666,1,0.4674404110010073
8,334,Control,0.0,0.1,0.015848931924611127,1,0.5022685769981763
8,335,Equal_null,0.1,0.1,0.05011872336272722,1,0.7147542349994183
8,336,Control,0.0,0.1,0.012589254117941666,0,0.5821051929997338
8,337,Equal,0.1,0.1,0.015848931924611127,1,0.30525187799867126
8,338,Control,0.0,0.25,0.015848931924611127,1,0.4923719329999585
8,339,Equal,0.25,0.25,0.012589254117941666,1,0.5127871369986678
8,340,Equal,0.25,0.25,0.009999999999999995,1,0.5333889490029833
8,341,Control,0.0,0.1,0.015848931924611127,1,0.5373897540011967
8,342,Equal,0.1,0.1,0.012589254117941666,0,0.4498478569985309
8,343,Equal,0.25,0.25,0.00794328234724281,0,0.7262121080020734
8,344,Control,0.0,0.25,0.012589254117941666,0,0.6866821149997122
8,345,Increase,0.1,0.25,0.015848931924611127,1,0.5204799269995419
8,346,Equal,0.25,0.25,0.009999999999999995,0,0.6090954700011935
8,347,Equal,0.1,0.1,0.015848931924611127,1,0.3401290939982573
8,348,Control,0.0,0.25,0.015848931924611127,1,0.3832119889993919
8,349,Equal,0.1,0.1,0.012589254117941666,0,0.5232923439980368
8,350,Equal,0.25,0.25,0.012589254117941666,1,0.4785867530008545
8,351,Equal,0.1,0.1,0.015848931924611127,0,0.29787501800092286
8,352,Equal,0.1,0.1,0.01995262314968879,1,0.36438370700125233
8,353,Control,0.0,0.25,0.012589254117941666,1,0.3942872219995479
8,354,Equal,0.25,0.25,0.009999999999999995,0,0.49493114500000956
8,355,Equal,0.25,0.25,0.012589254117941666,0,0.9435379739989003
8,356,Increase,0.1,0.25,0.012589254117941666,0,0.7228392899996834
8,357,Increase,0.1,0.25,0.015848931924611127,0,0.8751423020003131
8,358,Decrease,0.25,0.1,0.009999999999999995,0,1.0543486069982464
8,359,Increase,0.1,0.25,0.01995262314968879,0,0.5752670010006113
8,360,Equal,0.25,0.25,0.015848931924611127,1,0.5247555100031605
8,361,Equal,0.25,0.25,0.012589254117941666,1,0.503996321996965
8,362,Equal,0.25,0.25,0.009999999999999995,0,0.483254032998957
8,363,Increase,0.1,0.25,0.025118864315095794,1,0.4064845229986531
8,364,Control,0.0,0.1,0.012589254117941666,1,0.3854086129977077
8,365,Increase,0.1,0.25,0.01995262314968879,1,0.516778182998678
8,366,Control_null,0.0,0.25,0.06309573444801932,1,0.5612760369986063
8,367,Control,0.0,0.1,0.009999999999999995,0,0.6787714509991929
8,368,Decrease,0.25,0.1,0.012589254117941666,1,0.6392790829995647
8,369,Control,0.0,0.1,0.012589254117941666,0,0.7073826900013955
8,370,Decrease,0.25,0.1,0.009999999999999995,1,0.8521333719982067
8,371,Equal_null,0.25,0.25,0.06309573444801932,0,0.7907379690004745
8,372,Equal,0.25,0.25,0.012589254117941666,0,0.5361062570009381
8,373,Decrease,0.25,0.1,0.00794328234724281,1,0.3952988960008952
8,374,Increase,0.1,0.25,0.015848931924611127,1,0.49438306899901363
8,375,Control_null,0.0,0.25,0.05011872336272722,1,0.5375309779992676
8,376,Control,0.0,0.1,0.015848931924611127,0,0.5168235689998255
8,377,Equal_null,0.1,0.1,0.03981071705534971,1,0.968008784999256
8,378,Increase,0.1,0.25,0.012589254117941666,0,0.5073791920003714
8,379,Control,0.0,0.25,0.009999999999999995,1,0.48719123500268324
8,380,Equal,0.25,0.25,0.015848931924611127,1,0.5397891319989867
8,381,Control,0.0,0.25,0.00794328234724281,0,99
8,382,Increase,0.1,0.25,0.015848931924611127,1,0.6171746079999139
8,383,Decrease,0.25,0.1,0.0063095734448019285,0,0.512810742999136
8,384,Decrease_null,0.25,0.1,0.031622776601683784,1,0.5002978970005643
8,385,Increase,0.1,0.25,0.012589254117941666,1,0.5415823190014635
8,386,Equal,0.1,0.1,0.015848931924611127,1,0.5206691830026102
8,387,Increase_null,0.1,0.25,0.06309573444801932,1,0.8609240439982386
8,388,Control,0.0,0.1,0.01995262314968879,1,0.5920885909981735
8,389,Equal,0.1,0.1,0.012589254117941666,0,0.6432535339990864
8,390,Control,0.0,0.1,0.015848931924611127,1,0.4065070930009824
8,391,Equal,0.25,0.25,0.012589254117941666,1,0.6418302370002493
8,392,Control,0.0,0.25,0.009999999999999995,1,0.7267384660008247
8,393,Control,0.0,0.25,0.00794328234724281,1,1.2435727579977538
8,394,Increase,0.1,0.25,0.009999999999999995,1,0.69916668100268
8,395,Control,0.0,0.1,0.012589254117941666,0,0.7422998059992096
8,396,Equal,0.25,0.25,0.009999999999999995,1,0.5118368479998026
8,397,Increase,0.1,0.25,0.00794328234724281,1,0.370717945999786
8,398,Control_null,0.0,0.25,0.03981071705534971,0,99
8,399,Decrease,0.25,0.1,0.00794328234724281,0,0.47936401900005876
8,400,Decrease,0.25,0.1,0.009999999999999995,0,0.594304257996555
8,401,Equal,0.1,0.1,0.015848931924611127,1,0.6215647950011771
8,402,Control,0.0,0.1,0.015848931924611127,1,0.7826888130002772
8,403,Control,0.0,0.1,0.012589254117941666,0,0.9548130089970073
8,404,Increase,0.1,0.25,0.0063095734448019285,0,1.0780927270025131
8,405,Decrease,0.25,0.1,0.012589254117941666,1,0.6890095010021469
8,406,Equal,0.1,0.1,0.012589254117941666,0,99
8,407,Equal,0.1,0.1,0.015848931924611127,1,0.43046477000098093
8,408,Control,0.0,0.25,0.0063095734448019285,0,1.1549733840001863
8,409,Control,0.0,0.1,0.015848931924611127,1,0.8351434279975365
8,410,Increase_null,0.1,0.25,0.05011872336272722,1,0.8140348740016634
8,411,Control_null,0.0,0.25,0.05011872336272721,1,0.9834377119987039
8,412,Control,0.0,0.1,0.012589254117941666,1,0.6195598090016574
8,413,Equal,0.25,0.25,0.00794328234724281,1,1.1107470829992963
8,414,Equal,0.25,0.25,0.0063095734448019285,0,0.9942115680023562
8,415,Decrease,0.25,0.1,0.009999999999999995,1,0.5174729060017853
8,416,Equal,0.25,0.25,0.00794328234724281,0,0.5126374520004902
8,417,Control,0.0,0.1,0.009999999999999995,1,0.5795806620008079
8,418,Decrease,0.25,0.1,0.00794328234724281,1,0.7666913389984984
8,419,Decrease,0.25,0.1,0.0063095734448019285,0,0.651034973001515
8,420,Equal,0.1,0.1,0.012589254117941666,1,0.6111861049976142
8,421,Control,0.0,0.25,0.00794328234724281,0,0.5593948549976631
8,422,Decrease,0.25,0.1,0.00794328234724281,1,0.3915693330018257
8,423,Increase,0.1,0.25,0.00794328234724281,0,0.5068071950008743
8,424,Control,0.0,0.1,0.00794328234724281,0,0.7889024440009962
8,425,Control,0.0,0.25,0.009999999999999995,1,0.6000546399991435
8,426,Decrease_null,0.25,0.1,0.02511886431509579,0,0.8032873580013984
8,427,Increase,0.1,0.25,0.009999999999999995,1,0.5743826469988562
8,428,Increase_null,0.1,0.25,0.03981071705534971,1,0.6177318100017146
8,429,Equal,0.25,0.25,0.009999999999999995,0,0.5807360069993592
8,430,Control,0.0,0.25,0.00794328234724281,0,0.7039109429970267
8,431,Control,0.0,0.1,0.009999999999999995,1,0.6112650949980889
8,432,Equal,0.25,0.25,0.012589254117941666,0,0.7584673980018124
8,433,Equal,0.25,0.25,0.015848931924611127,1,0.5755353460008337
8,434,Control,0.0,0.1,0.00794328234724281,1,1.0267135289977887
8,435,Decrease,0.25,0.1,0.0063095734448019285,0,0.6753044869983569
8,436,Control,0.0,0.25,0.009999999999999995,1,0.5190540490002604
8,437,Equal,0.25,0.25,0.012589254117941666,0,0.6241101039995556
8,438,Control_null,0.0,0.1,0.05011872336272722,1,0.4514847960017505
8,439,Increase_null,0.1,0.25,0.031622776601683784,0,0.6786105300016061
8,440,Decrease,0.25,0.1,0.00794328234724281,1,0.7699717270006659
8,441,Decrease,0.25,0.1,0.0063095734448019285,0,0.5260650650016032
8,442,Control,0.0,0.1,0.0063095734448019285,0,0.6904066339993733
8,443,Equal_null,0.1,0.1,0.031622776601683784,1,0.526377741000033
8,444,Equal,0.25,0.25,0.015848931924611127,1,0.5446118639993074
8,445,Equal_null,0.25,0.25,0.07943282347242814,1,0.6838309330014454
8,446,Increase,0.1,0.25,0.00794328234724281,0,0.7651028700020106
8,447,Decrease,0.25,0.1,0.00794328234724281,0,0.5122617870001704
8,448,Control,0.0,0.1,0.00794328234724281,0,0.39333058899865136
8,449,Equal,0.25,0.25,0.012589254117941666,0,0.5086284359967976
8,450,Equal_null,0.25,0.25,0.06309573444801932,1,0.3825550680012384
8,451,Equal,0.1,0.1,0.009999999999999995,0,0.45688003599934746
8,452,Decrease,0.25,0.1,0.009999999999999995,1,0.9401612609981385
8,453,Increase,0.1,0.25,0.009999999999999995,1,0.632206338999822
8,454,Decrease,0.25,0.1,0.00794328234724281,0,0.5474169259978225
8,455,Control,0.0,0.1,0.009999999999999995,0,0.6068083209975157
8,456,Increase,0.1,0.25,0.00794328234724281,1,0.8669346890019369
8,457,Equal,0.1,0.1,0.012589254117941666,0,0.8049483069989947
8,458,Increase,0.1,0.25,0.0063095734448019285,0,0.6559956529999909
8,459,Control,0.0,0.25,0.00794328234724281,0,0.7835235019992979
8,460,Equal,0.1,0.1,0.015848931924611127,1,0.5466458940027223
8,461,Control,0.0,0.1,0.012589254117941666,1,0.4357466410001507
8,462,Control,0.0,0.1,0.009999999999999995,0,0.5589684379992832
8,463,Control,0.0,0.25,0.009999999999999995,0,0.481155679000949
8,464,Increase,0.1,0.25,0.00794328234724281,0,0.9966315739984566
8,465,Decrease,0.25,0.1,0.009999999999999995,1,0.6954258799996751
8,466,Control,0.0,0.1,0.012589254117941666,1,0.6186918890016386
8,467,Equal,0.25,0.25,0.015848931924611127,1,0.5590379419991223
8,468,Increase_null,0.1,0.25,0.03981071705534971,1,0.5291865239996696
8,469,Decrease,0.25,0.1,0.00794328234724281,1,0.543794622997666
8,470,Control,0.0,0.25,0.012589254117941666,1,1.0483905379987846
8,471,Control,0.0,0.1,0.009999999999999995,0,0.9077009309985442
8,472,Decrease,0.25,0.1,0.0063095734448019285,1,0.5237878010011627
8,473,Increase,0.1,0.25,0.009999999999999995,1,0.80711694600177
8,474,Control,0.0,0.1,0.012589254117941666,1,0.5441165570009616
8,475,Equal,0.1,0.1,0.012589254117941666,1,0.5314065970014781
8,476,Control,0.0,0.1,0.009999999999999995,0,0.7257391860002826
8,477,Control,0.0,0.1,0.012589254117941666,0,99
8,478,Control,0.0,0.1,0.015848931924611127,1,0.4508367829985218
8,479,Decrease,0.25,0.1,0.005011872336272719,0,0.7820208550001553
8,480,Decrease,0.25,0.1,0.0063095734448019285,0,0.477987384001608
8,481,Equal,0.25,0.25,0.012589254117941666,0,0.3451846129974001
8,482,Increase,0.1,0.25,0.00794328234724281,1,0.4452905780017318
8,483,Increase,0.1,0.25,0.0063095734448019285,0,0.41882890299893916
8,484,Control,0.0,0.25,0.009999999999999995,1,0.3713770909998857
8,485,Decrease,0.25,0.1,0.00794328234724281,1,0.3748190139995131
8,486,Equal,0.1,0.1,0.009999999999999995,0,0.3518838890013285
8,487,Control,0.0,0.25,0.00794328234724281,1,0.37118515000111074
8,488,Equal_null,0.1,0.1,0.02511886431509579,1,0.37141553899709834
8,489,Increase,0.1,0.25,0.00794328234724281,1,0.31863675200293073
8,490,Control,0.0,0.25,0.0063095734448019285,0,0.5548977709986502
8,491,Decrease,0.25,0.1,0.0063095734448019285,0,0.8460494749997451
8,492,Control,0.0,0.1,0.012589254117941666,0,0.6649004810024053
8,493,Equal,0.25,0.25,0.015848931924611127,1,0.3003048550017411
8,494,Equal,0.1,0.1,0.012589254117941666,1,0.4954981269984273
8,495,Control,0.0,0.25,0.00794328234724281,1,0.5239917060025618
8,496,Control,0.0,0.1,0.015848931924611127,1,0.5531042069997056
8,497,Equal,0.1,0.1,0.009999999999999995,1,0.5608954050003376
8,498,Equal,0.25,0.25,0.012589254117941666,0,0.7892728999977408
8,499,Equal,0.25,0.25,0.015848931924611127,1,0.5576727779989596
8,500,Equal,0.25,0.25,0.012589254117941666,1,0.6806044160002784
8,501,Equal,0.1,0.1,0.00794328234724281,1,0.5206986449993565
8,502,Control,0.0,0.25,0.0063095734448019285,1,0.5957931180018932
8,503,Increase,0.1,0.25,0.0063095734448019285,1,0.504278604999854
8,504,Increase,0.1,0.25,0.005011872336272719,0,0.45941921200210345
8,505,Control,0.0,0.25,0.005011872336272719,0,0.5986916729998484
8,506,Decrease,0.25,0.1,0.00794328234724281,1,0.6418498329985596
8,507,Equal,0.1,0.1,0.0063095734448019285,0,0.6129808200021216
8,508,Equal,0.1,0.1,0.00794328234724281,0,0.8099649910000153
8,509,Equal,0.1,0.1,0.009999999999999995,1,0.630829336001625
8,510,Control,0.0,0.25,0.0063095734448019285,0,0.5185557270015124
8,511,Equal,0.1,0.1,0.00794328234724281,0,0.5456271170005493
8,512,Decrease_null,0.25,0.1,0.031622776601683784,1,0.43481486800010316
8,513,Equal,0.1,0.1,0.009999999999999995,0,99
8,514,Control,0.0,0.25,0.00794328234724281,0,0.3594650710001588
8,515,Equal,0.1,0.1,0.012589254117941666,0,0.41846608400010155
8,516,Equal,0.25,0.25,0.009999999999999995,0,0.44465975699858973
8,517,Decrease,0.25,0.1,0.0063095734448019285,0,0.5437982990006276
8,518,Decrease,0.25,0.1,0.00794328234724281,0,0.6668184669979382
8,519,Increase,0.1,0.25,0.0063095734448019285,0,0.8223663589997159
8,520,Control,0.0,0.1,0.012589254117941666,0,0.569557304999762
8,521,Control,0.0,0.25,0.009999999999999995,0,0.5647196419995453
8,522,Equal,0.1,0.1,0.015848931924611127,1,0.4097386590001406
8,523,Equal,0.1,0.1,0.012589254117941666,1,0.929714858000807
8,524,Equal,0.1,0.1,0.009999999999999995,1,0.6140642150021449
8,525,Equal,0.25,0.25,0.012589254117941666,1,0.5264010659993801
8,526,Control,0.0,0.25,0.012589254117941666,1,0.6417077110017999
8,527,Equal,0.25,0.25,0.009999999999999995,0,0.5787582859993563
8,528,Control,0.0,0.1,0.015848931924611127,1,0.4300902320028399
8,529,Equal,0.25,0.25,0.012589254117941666,1,0.8091448900013347
8,530,Control,0.0,0.1,0.012589254117941666,0,0.5079478560001007
8,531,Equal_null,0.1,0.1,0.01995262314968879,1,0.42350236600032076
8,532,Equal,0.25,0.25,0.009999999999999995,1,0.5235831699974369
8,533,Control,0.0,0.25,0.009999999999999995,0,0.6958099440016667
8,534,Equal,0.25,0.25,0.00794328234724281,0,1.0271301489992766
8,535,Control,0.0,0.25,0.012589254117941666,1,0.614393484996981
8,536,Equal,0.1,0.1,0.00794328234724281,0,0.775318496998807
8,537,Equal,0.25,0.25,0.009999999999999995,1,0.6345307829978992
8,538,Equal,0.25,0.25,0.00794328234724281,0,0.7387582500014105
8,539,Equal,0.1,0.1,0.009999999999999995,1,0.9028666420017544
8,540,Control,0.0,0.25,0.009999999999999995,0,0.5922873210001853
8,541,Control,0.0,0.25,0.012589254117941666,1,0.4431337580026593
8,542,Control,0.0,0.25,0.009999999999999995,0,0.4304663220027578
8,543,Increase_null,0.1,0.25,0.031622776601683784,1,0.4337574399978621
8,544,Equal,0.1,0.1,0.00794328234724281,0,0.3568694450004841
8,545,Equal,0.25,0.25,0.009999999999999995,0,0.6249325040007534
8,546,Control_null,0.0,0.1,0.03981071705534971,1,0.5331481450011779
8,547,Decrease,0.25,0.1,0.009999999999999995,0,0.6409205800009659
8,548,Decrease,0.25,0.1,0.012589254117941666,1,0.7558130130018981
8,549,Control_null,0.0,0.25,0.03981071705534971,1,0.5076094989999547
8,550,Control,0.0,0.25,0.012589254117941666,0,0.5509884109997074
8,551,Control,0.0,0.25,0.015848931924611127,1,0.5907577190009761
8,552,Equal,0.1,0.1,0.009999999999999995,0,0.7785600919996796
8,553,Control,0.0,0.25,0.012589254117941666,0,0.5967359139976907
8,554,Increase,0.1,0.25,0.00794328234724281,0,0.583768581996992
8,555,Control,0.0,0.25,0.015848931924611127,0,0.7227599059988279
8,556,Increase,0.1,0.25,0.009999999999999995,0,0.40584305999800563
8,557,Equal_null,0.25,0.25,0.05011872336272722,0,0.5450882889999775
8,558,Equal,0.25,0.25,0.012589254117941666,1,0.5425801609999326
8,559,Control,0.0,0.1,0.015848931924611127,1,0.6040279810003994
8,560,Equal,0.1,0.1,0.012589254117941666,0,0.5809097730016219
8,561,Equal,0.1,0.1,0.015848931924611127,1,0.6252440520001983
8,562,Increase_null,0.1,0.25,0.02511886431509579,1,0.6732892079999147
8,563,Equal,0.1,0.1,0.012589254117941666,1,0.5413017760001821
8,564,Increase,0.1,0.25,0.012589254117941666,0,0.7096854949995759
8,565,Decrease,0.25,0.1,0.009999999999999995,1,0.7448265310013085
8,566,Control,0.0,0.25,0.01995262314968879,0,0.5389170649978041
8,567,Control,0.0,0.1,0.012589254117941666,1,0.5661983360005252
8,568,Equal,0.1,0.1,0.009999999999999995,1,0.6091258250016836
8,569,Decrease,0.25,0.1,0.00794328234724281,0,0.5095212339983846
8,570,Control,0.0,0.1,0.009999999999999995,0,0.5849543619988253
8,571,Equal,0.25,0.25,0.009999999999999995,0,0.541751929999009
8,572,Decrease,0.25,0.1,0.009999999999999995,1,0.5692011089995503
8,573,Increase,0.1,0.25,0.015848931924611127,1,0.4652931409982557
8,574,Decrease,0.25,0.1,0.00794328234724281,1,0.5799809689997346
8,575,Control,0.0,0.1,0.012589254117941666,1,0.5002887419977924
8,576,Decrease,0.25,0.1,0.0063095734448019285,0,0.7678059019999637
8,577,Control,0.0,0.1,0.009999999999999995,1,0.6080907539981126
8,578,Equal,0.1,0.1,0.00794328234724281,0,0.779315724998014
8,579,Increase,0.1,0.25,0.012589254117941666,1,0.4373801570000069
8,580,Control_null,0.0,0.25,0.031622776601683784,1,0.6325333220011089
8,581,Increase,0.1,0.25,0.009999999999999995,1,1.0929398520020186
8,582,Control,0.0,0.25,0.025118864315095794,1,0.4799662269979308
8,583,Equal,0.1,0.1,0.009999999999999995,0,0.5887175440002466
8,584,Control,0.0,0.1,0.00794328234724281,1,0.656457262000913
8,585,Decrease_null,0.25,0.1,0.02511886431509579,1,0.6786830169985478
8,586,Decrease,0.25,0.1,0.00794328234724281,1,0.6626908159996674
8,587,Equal,0.1,0.1,0.012589254117941666,1,0.5779743410021183
8,588,Control_null,0.0,0.25,0.02511886431509579,1,0.41011687200079905
8,589,Equal,0.1,0.1,0.009999999999999995,1,0.5972347280003305
8,590,Decrease_null,0.25,0.1,0.01995262314968879,1,0.5824683270002424
8,591,Decrease,0.25,0.1,0.0063095734448019285,0,0.7696053799991205
8,592,Increase,0.1,0.25,0.00794328234724281,1,0.7237455649992626
8,593,Increase,0.1,0.25,0.0063095734448019285,0,0.62426827300078
8,594,Decrease_null,0.25,0.1,0.015848931924611127,1,0.5950277080009982
8,595,Equal,0.25,0.25,0.012589254117941666,1,0.6783701220010698
8,596,Equal,0.25,0.25,0.009999999999999995,0,0.6905712929983565
8,597,Equal,0.25,0.25,0.012589254117941666,0,0.5916186280010152
8,598,Increase,0.1,0.25,0.00794328234724281,0,0.7405512260011164
8,599,Control,0.0,0.1,0.0063095734448019285,1,0.6932792840016191
8,600,Decrease,0.25,0.1,0.00794328234724281,1,0.5613371190011094
8,601,Control,0.0,0.25,0.01995262314968879,1,0.4285390869990806
8,602,Equal,0.1,0.1,0.00794328234724281,1,0.4155270420014858
8,603,Increase,0.1,0.25,0.009999999999999995,0,0.3547425270007807
8,604,Control,0.0,0.1,0.005011872336272719,0,0.4311244700002135
8,605,Equal,0.25,0.25,0.015848931924611127,1,0.5860467620004783
8,606,Decrease,0.25,0.1,0.0063095734448019285,0,0.41541567300009774
8,607,Increase_null,0.1,0.25,0.01995262314968879,1,0.5784684460013523
8,608,Control,0.0,0.1,0.0063095734448019285,1,0.6986931889987318
8,609,Control_null,0.0,0.25,0.01995262314968879,0,0.7428265230009856
8,610,Increase,0.1,0.25,0.012589254117941666,1,0.46338768300120137
8,611,Decrease,0.25,0.1,0.00794328234724281,1,0.5301186960023188
8,612,Control,0.0,0.25,0.015848931924611127,1,0.4113364389995695
8,613,Equal,0.25,0.25,0.012589254117941666,1,0.3185049040002923
8,614,Control,0.0,0.25,0.012589254117941666,0,0.5388537649996579
8,615,Increase,0.1,0.25,0.009999999999999995,1,0.7661817029984377
8,616,Control,0.0,0.1,0.005011872336272719,0,0.43331414299973403
8,617,Equal_null,0.25,0.25,0.06309573444801932,1,0.4374824689984962
8,618,Decrease,0.25,0.1,0.0063095734448019285,1,0.4005354479995731
8,619,Equal,0.1,0.1,0.0063095734448019285,0,0.4356924029998481
8,620,Control,0.0,0.1,0.0063095734448019285,1,0.6551634600000398
8,621,Decrease,0.25,0.1,0.005011872336272719,0,0.32027204299811274
8,622,Control,0.0,0.1,0.005011872336272719,1,0.4673967659982736
8,623,Decrease,0.25,0.1,0.0063095734448019285,0,0.42720623900095234
8,624,Decrease,0.25,0.1,0.00794328234724281,0,0.3435474929974589
8,625,Decrease,0.25,0.1,0.009999999999999995,0,0.5929177359976165
8,626,Equal,0.25,0.25,0.009999999999999995,1,0.3800828349994845
8,627,Equal,0.1,0.1,0.00794328234724281,1,0.743419399997947
8,628,Increase,0.1,0.25,0.00794328234724281,0,0.5466015540005174
8,629,Equal,0.1,0.1,0.0063095734448019285,0,0.46169432799797505
8,630,Increase,0.1,0.25,0.009999999999999995,0,0.4010123810003279
8,631,Increase,0.1,0.25,0.012589254117941666,1,0.674344283001119
8,632,Control,0.0,0.25,0.015848931924611127,1,0.5731679130003613
8,633,Equal,0.25,0.25,0.00794328234724281,1,0.5134307000007539
8,634,Decrease,0.25,0.1,0.012589254117941666,0,0.6175791749992641
8,635,Equal,0.25,0.25,0.0063095734448019285,0,0.7086127709990251
8,636,Equal,0.1,0.1,0.00794328234724281,1,0.7421508740007994
8,637,Increase,0.1,0.25,0.009999999999999995,0,0.5612326590016892
8,638,Control,0.0,0.25,0.012589254117941666,0,0.5715396229970793
8,639,Equal,0.25,0.25,0.00794328234724281,0,0.5906515099995886
8,640,Control,0.0,0.25,0.015848931924611127,1,0.4895722820001538
8,641,Decrease,0.25,0.1,0.015848931924611127,1,0.4689010279980721
8,642,Equal_null,0.1,0.1,0.015848931924611127,0,0.8494211830002314
8,643,Control,0.0,0.25,0.012589254117941666,0,0.5175250720021722
8,644,Decrease,0.25,0.1,0.012589254117941666,0,0.4311061190019245
8,645,Decrease,0.25,0.1,0.015848931924611127,1,0.27499295599773177
8,646,Decrease,0.25,0.1,0.012589254117941666,1,0.6228764289990067
8,647,Increase,0.1,0.25,0.012589254117941666,0,0.7270441539985768
8,648,Increase,0.1,0.25,0.015848931924611127,1,0.4742384570017748
8,649,Equal,0.1,0.1,0.0063095734448019285,0,0.5622561860000133
8,650,Increase,0.1,0.25,0.012589254117941666,1,0.32568825599810225
8,651,Increase,0.1,0.25,0.009999999999999995,1,0.5607674210004916
8,652,Equal,0.1,0.1,0.00794328234724281,0,0.5639284349999798
8,653,Control,0.0,0.25,0.015848931924611127,1,0.5190307580014633
8,654,Increase,0.1,0.25,0.00794328234724281,1,0.5783417050006392
8,655,Control,0.0,0.25,0.012589254117941666,0,0.49412826700063306
8,656,Increase,0.1,0.25,0.0063095734448019285,0,0.3628397130014491
8,657,Control,0.0,0.25,0.015848931924611127,0,0.30989496699839947
8,658,Equal,0.25,0.25,0.009999999999999995,0,0.7848600779980188
8,659,Control,0.0,0.25,0.01995262314968879,1,0.6043764009991719
8,660,Control,0.0,0.1,0.00398107170553497,0,0.9406890889986244
8,661,Equal,0.1,0.1,0.009999999999999995,0,99
8,662,Control,0.0,0.1,0.00501187233627272,1,1.1369350419990951
8,663,Decrease,0.25,0.1,0.009999999999999995,0,0.69140551700184
8,664,Equal,0.25,0.25,0.012589254117941666,0,0.5903607810032554
8,665,Increase,0.1,0.25,0.00794328234724281,1,0.7537118250002095
8,666,Increase,0.1,0.25,0.0063095734448019285,0,0.5176194849991589
8,667,Increase,0.1,0.25,0.00794328234724281,0,0.6567484750012227
8,668,Equal_null,0.1,0.1,0.01995262314968879,1,0.47750682100013364
8,669,Decrease,0.25,0.1,0.012589254117941666,0,0.3613367269972514
8,670,Equal,0.25,0.25,0.015848931924611127,1,0.46004640799947083
8,671,Increase,0.1,0.25,0.009999999999999995,1,0.6475390139967203
8,672,Decrease_null,0.25,0.1,0.012589254117941666,1,0.41039293900030316
8,673,Decrease,0.25,0.1,0.015848931924611127,1,0.5632085960023687
8,674,Increase,0.1,0.25,0.00794328234724281,0,0.5661462280004343
8,675,Decrease,0.25,0.1,0.012589254117941666,1,0.5352120919997105
8,676,Equal,0.1,0.1,0.012589254117941666,0,0.15348432899918407
8,677,Equal,0.25,0.25,0.012589254117941666,0,0.1638372170018556
8,678,Control,0.0,0.25,0.015848931924611127,1,0.535944183000538
8,679,Equal,0.1,0.1,0.015848931924611127,1,0.611127176998707
8,680,Decrease,0.25,0.1,0.009999999999999995,1,0.6144771309991484
8,681,Equal,0.1,0.1,0.012589254117941666,0,1.2426811309996992
8,682,Equal,0.1,0.1,0.015848931924611127,1,0.8401553170006082
8,683,Control,0.0,0.25,0.012589254117941666,1,0.7463194250012748
8,684,Equal_null,0.25,0.25,0.05011872336272722,1,0.5569891790000838
8,685,Control,0.0,0.1,0.00398107170553497,0,0.3036546020011883
8,686,Increase,0.1,0.25,0.009999999999999995,1,0.121421128998918
8,687,Increase,0.1,0.25,0.00794328234724281,0,0.4526058199990075
8,688,Control,0.0,0.25,0.009999999999999995,0,0.6116809029990691
8,689,Equal,0.1,0.1,0.012589254117941666,0,0.6070753610001702
8,690,Increase,0.1,0.25,0.009999999999999995,0,0.394191586998204
8,691,Equal,0.1,0.1,0.015848931924611127,0,0.6374101979999978
8,692,Equal,0.25,0.25,0.015848931924611127,1,0.3522361949981132
8,693,Control,0.0,0.1,0.00501187233627272,0,0.6914991049998207
8,694,Equal,0.1,0.1,0.01995262314968879,1,0.6961786809988553
8,695,Control,0.0,0.25,0.012589254117941666,0,0.7812115779997839
8,696,Increase,0.1,0.25,0.012589254117941666,1,0.6828997299999173
8,697,Equal,0.1,0.1,0.015848931924611127,1,0.5473972699983278
8,698,Control,0.0,0.1,0.006309573444801929,0,0.6543698979985493
8,699,Control,0.0,0.1,0.007943282347242812,1,0.6319694749981863
8,700,Decrease,0.25,0.1,0.00794328234724281,0,0.7151764080008434
8,701,Equal_null,0.25,0.25,0.03981071705534971,1,0.835251235999749
8,702,Control,0.0,0.1,0.006309573444801929,1,0.5742924090009183
8,703,Increase,0.1,0.25,0.009999999999999995,0,0.5616034650010988
8,704,Equal,0.25,0.25,0.012589254117941666,0,0.6927338129971758
8,705,Equal,0.25,0.25,0.015848931924611127,1,0.600004538999201
8,706,Control,0.0,0.1,0.00501187233627272,0,0.6281679620005889
8,707,Equal,0.25,0.25,0.012589254117941666,1,0.6160817739983031
8,708,Decrease,0.25,0.1,0.009999999999999995,0,0.5729590470000403
8,709,Increase,0.1,0.25,0.012589254117941666,0,0.6878263990001869
8,710,Decrease,0.25,0.1,0.012589254117941666,0,0.5628751410004043
8,711,Control,0.0,0.1,0.006309573444801929,0,99
8,712,Control,0.0,0.1,0.007943282347242812,0,0.2539819650010031
8,713,Equal,0.1,0.1,0.012589254117941666,0,0.42550133600161644
8,714,Equal,0.25,0.25,0.009999999999999995,1,0.5786627889974625
8,715,Equal,0.1,0.1,0.015848931924611127,1,0.6375890819981578
8,716,Increase,0.1,0.25,0.015848931924611127,1,0.5607467830013775
8,717,Equal,0.25,0.25,0.00794328234724281,0,0.45240334299887763
8,718,Control,0.0,0.1,0.009999999999999997,1,0.5595335679972777
8,719,Increase,0.1,0.25,0.012589254117941666,0,0.42756337099854136
8,720,Equal,0.25,0.25,0.009999999999999995,0,0.3478849540006195
8,721,Decrease,0.25,0.1,0.015848931924611127,0,0.30347392999829026
8,722,Control,0.0,0.1,0.007943282347242812,0,0.3176005300010729
8,723,Control,0.0,0.25,0.015848931924611127,1,0.39010939600120764
8,724,Control,0.0,0.1,0.009999999999999997,0,0.43345587300063926
8,725,Control,0.0,0.1,0.012589254117941668,0,0.20929916000022786
8,726,Equal,0.25,0.25,0.012589254117941666,0,0.1246606860004249
8,727,Equal,0.25,0.25,0.015848931924611127,1,0.39084649000142235
8,728,Increase,0.1,0.25,0.015848931924611127,1,0.6581124620024639
8,729,Control_null,0.0,0.1,0.031622776601683784,1,0.7092434890000732
8,730,Equal,0.1,0.1,0.012589254117941666,1,0.5122958850006398
8,731,Control_null,0.0,0.1,0.02511886431509579,1,0.5875491539991344
8,732,Equal_null,0.25,0.25,0.031622776601683784,1,0.630651138999383
8,733,Equal_null,0.25,0.25,0.02511886431509579,0,0.5140857900005358
8,734,Decrease,0.25,0.1,0.01995262314968879,1,0.656438961999811
8,735,Control,0.0,0.25,0.012589254117941666,0,0.7227210620003461
8,736,Equal,0.25,0.25,0.012589254117941666,1,0.676488822002284
8,737,Increase,0.1,0.25,0.012589254117941666,0,0.5747761889979301
8,738,Control,0.0,0.1,0.01584893192461113,0,0.6393771080001898
8,739,Control,0.0,0.1,0.019952623149688792,1,0.4585313600000518
8,740,Control,0.0,0.25,0.015848931924611127,1,0.3953036319981038
8,741,Increase,0.1,0.25,0.015848931924611127,1,0.5511855620025017
8,742,Increase,0.1,0.25,0.012589254117941666,1,1.0905892129994754
8,743,Equal_null,0.25,0.25,0.031622776601683784,0,99
8,744,Equal,0.1,0.1,0.009999999999999995,1,0.681285755999852
8,745,Equal,0.1,0.1,0.00794328234724281,0,0.63723088000188
8,746,Control,0.0,0.1,0.01584893192461113,0,0.9606500010013406
8,747,Equal,0.1,0.1,0.009999999999999995,1,0.5887037350003084
8,748,Control,0.0,0.25,0.012589254117941666,0,99
8,749,Increase,0.1,0.25,0.009999999999999995,0,1.0889200229976268
8,750,Equal,0.1,0.1,0.00794328234724281,0,0.5492071110020333
8,751,Decrease,0.25,0.1,0.015848931924611127,1,0.4774041140008194
8,752,Decrease,0.25,0.1,0.012589254117941666,0,0.7366321159970539
8,753,Increase,0.1,0.25,0.012589254117941666,1,0.5709834529989166
8,754,Control,0.0,0.1,0.019952623149688792,1,0.4699934589989425
8,755,Equal_null,0.1,0.1,0.015848931924611127,1,0.40875464100099634
8,756,Increase_null,0.1,0.25,0.015848931924611127,1,0.5398146860025008
8,757,Control,0.0,0.25,0.015848931924611127,1,0.4563510270018014
8,758,Decrease,0.25,0.1,0.015848931924611127,0,0.7813033170023118
8,759,Equal,0.1,0.1,0.009999999999999995,1,0.6539709429998766
8,760,Increase,0.1,0.25,0.009999999999999995,1,0.5938562169976649
8,761,Control,0.0,0.25,0.012589254117941666,0,0.4942755189986201
8,762,Decrease,0.25,0.1,0.01995262314968879,1,0.5582790180014854
8,763,Control,0.0,0.1,0.01584893192461113,0,0.601513284000248
8,764,Control,0.0,0.1,0.019952623149688792,1,0.5780000140002812
8,765,Equal,0.1,0.1,0.00794328234724281,0,0.5021645010019711
8,766,Control,0.0,0.25,0.015848931924611127,1,0.5602278030019079
8,767,Equal,0.1,0.1,0.009999999999999995,1,1.0034342109975114
8,768,Equal,0.1,0.1,0.00794328234724281,1,1.0546018499990168
8,769,Decrease,0.25,0.1,0.015848931924611127,1,0.5542509439983405
8,770,Equal,0.25,0.25,0.009999999999999995,0,0.53271975700045
8,771,Decrease,0.25,0.1,0.012589254117941666,0,0.6330011569989438
8,772,Equal,0.25,0.25,0.012589254117941666,0,0.6755196919984883
8,773,Decrease,0.25,0.1,0.015848931924611127,1,0.5195410240012279
8,774,Equal,0.25,0.25,0.015848931924611127,1,0.49879591900025844
8,775,Control,0.0,0.25,0.012589254117941666,0,0.7948767239977315
8,776,Equal,0.1,0.1,0.0063095734448019285,0,0.8059614500016323
8,777,Decrease,0.25,0.1,0.012589254117941666,0,0.7835039450001204
8,778,Equal,0.25,0.25,0.012589254117941666,0,0.5065738770026655
8,779,Control_null,0.0,0.1,0.01995262314968879,1,0.5085723640004289
8,780,Equal,0.1,0.1,0.00794328234724281,0,0.3757253469993884
8,781,Equal,0.1,0.1,0.009999999999999995,1,0.4989753989975725
8,782,Equal,0.25,0.25,0.015848931924611127,1,0.5260829559992999
8,783,Equal,0.1,0.1,0.00794328234724281,1,0.5133157210002537
8,784,Equal,0.25,0.25,0.012589254117941666,0,0.6710413599976164
8,785,Equal,0.25,0.25,0.015848931924611127,1,0.6568639500001154
8,786,Equal,0.25,0.25,0.012589254117941666,0,0.37993844100128626
8,787,Equal,0.1,0.1,0.0063095734448019285,1,0.7510666630005289
8,788,Equal_null,0.1,0.1,0.012589254117941666,1,0.22441659799733316
8,789,Equal,0.25,0.25,0.015848931924611127,0,0.0675693900011538
8,790,Decrease,0.25,0.1,0.015848931924611127,1,0.5555674099996395
8,791,Control_null,0.0,0.1,0.015848931924611127,1,0.9989793679997092
8,792,Control,0.0,0.1,0.01584893192461113,1,0.6499521420009842
8,793,Decrease,0.25,0.1,0.012589254117941666,0,0.48516785399988294
8,794,Control,0.0,0.1,0.012589254117941668,0,0.40024141799949575
8,795,Decrease,0.25,0.1,0.015848931924611127,1,0.4275562049988366
8,796,Equal,0.1,0.1,0.005011872336272719,0,0.5856950050001615
8,797,Decrease,0.25,0.1,0.012589254117941666,1,0.8391050469981565
8,798,Equal,0.1,0.1,0.0063095734448019285,0,0.4641550870001083
8,799,Control,0.0,0.1,0.01584893192461113,1,0.611328754999704
8,800,Control,0.0,0.1,0.012589254117941668,0,0.5263084289981634
8,801,Equal,0.25,0.25,0.01995262314968879,1,0.510620992998156
8,802,Decrease,0.25,0.1,0.009999999999999995,0,0.7289313019973633
8,803,Equal,0.25,0.25,0.015848931924611127,1,0.6181284070007678
8,804,Control,0.0,0.1,0.01584893192461113,1,0.628363353000168
8,805,Decrease,0.25,0.1,0.012589254117941666,1,0.6393928509969555
8,806,Decrease,0.25,0.1,0.009999999999999995,0,0.6107569539999531
8,807,Equal,0.25,0.25,0.012589254117941666,0,0.5508449049993942
8,808,Control,0.0,0.1,0.012589254117941668,0,0.6500772930012317
8,809,Decrease,0.25,0.1,0.012589254117941666,0,0.6226920970002539
8,810,Equal,0.25,0.25,0.015848931924611127,1,0.5545547420006187
8,811,Control,0.0,0.25,0.015848931924611127,1,0.6456390989987995
8,812,Control,0.0,0.25,0.012589254117941666,1,0.6249816529998498
8,813,Control,0.0,0.1,0.01584893192461113,0,0.9081527279995498
8,814,Equal,0.25,0.25,0.012589254117941666,0,0.8841873980018136
8,815,Control,0.0,0.25,0.009999999999999995,0,0.6392948499997146
8,816,Equal,0.25,0.25,0.015848931924611127,0,99
8,817,Control,0.0,0.1,0.019952623149688792,1,0.5876938740002515
8,818,Control,0.0,0.25,0.012589254117941666,0,0.9669662999986031
8,819,Control,0.0,0.25,0.015848931924611127,1,0.7219580189994304
8,820,Control,0.0,0.25,0.012589254117941666,0,0.7971853100025328
8,821,Control,0.0,0.25,0.015848931924611127,1,0.6806688300021051
8,822,Control,0.0,0.1,0.01584893192461113,0,0.8540672930030269
8,823,Control,0.0,0.1,0.019952623149688792,1,0.5220302840025397
8,824,Control,0.0,0.25,0.012589254117941666,0,0.6350019380006415
8,825,Control,0.0,0.25,0.015848931924611127,1,0.6473551490016689
8,826,Control_null,0.0,0.1,0.012589254117941666,1,0.6102474690014787
8,827,Control,0.0,0.25,0.012589254117941666,1,0.7384634330010158
8,828,Control,0.0,0.25,0.009999999999999995,0,0.9094927149999421
8,829,Control,0.0,0.25,0.012589254117941666,0,0.8789977900014492
8,830,Control,0.0,0.25,0.015848931924611127,1,0.49016312700041453
8,831,Control,0.0,0.25,0.012589254117941666,1,0.5095506350007781
8,832,Control,0.0,0.25,0.009999999999999995,0,0.46442420099992887
8,833,Control,0.0,0.25,0.012589254117941666,0,0.42760260100112646
8,834,Control_null,0.0,0.1,0.009999999999999995,1,0.5430708419989969
8,835,Equal_null,0.1,0.1,0.009999999999999995,1,0.6114320540000335
8,836,Equal_null,0.1,0.1,0.00794328234724281,1,0.6007648079976207
8,837,Control_null,0.0,0.1,0.00794328234724281,1,0.37037546999999904
8,838,Control_null,0.0,0.1,0.0063095734448019285,1,0.2773363660016912
8,839,Control_null,0.0,0.1,0.005011872336272719,1,0.4969231840004795
