Participant_Number,Trial_Number,Condition,FC_distal,FC_proximal,Target_Contrast,Correct_Response,Reaction_Time
15,0,Control,0.0,0.25,0.1,1,0.5819399279989739
15,1,Equal,0.25,0.25,0.1,1,0.5770570240001689
15,2,Decrease,0.25,0.1,0.1,1,0.524250074999145
15,3,Increase_null,0.1,0.25,0.1,1,0.6955296190008085
15,4,Control,0.0,0.1,0.1,1,0.5558278790012992
15,5,Equal,0.25,0.25,0.07943282347242815,1,0.5044105970009696
15,6,Decrease,0.25,0.1,0.07943282347242815,1,0.588217895001435
15,7,Increase_null,0.1,0.25,0.07943282347242815,1,0.13381287299853284
15,8,Equal,0.25,0.25,0.06309573444801932,1,0.809486731999641
15,9,Decrease,0.25,0.1,0.06309573444801932,1,0.5087538089992449
15,10,Decrease,0.25,0.1,0.05011872336272722,1,0.47678508599892666
15,11,Equal,0.25,0.25,0.05011872336272722,1,0.5760646270009602
15,12,Increase,0.1,0.25,0.1,1,0.5371862539996073
15,13,Equal,0.25,0.25,0.03981071705534971,1,0.6204654869998194
15,14,Decrease,0.25,0.1,0.03981071705534971,1,0.6397226410008443
15,15,Decrease,0.25,0.1,0.031622776601683784,1,0.3151194359998044
15,16,Increase,0.1,0.25,0.07943282347242815,1,0.598921454999072
15,17,Decrease_null,0.25,0.1,0.1,1,0.7943984379999165
15,18,Decrease,0.25,0.1,0.02511886431509579,1,0.4869644930004142
15,19,Equal,0.1,0.1,0.1,1,0.7227530210002442
15,20,Decrease,0.25,0.1,0.01995262314968879,1,0.5008953269989433
15,21,Increase_null,0.1,0.25,0.06309573444801932,1,0.5440900130015507
15,22,Control,0.0,0.25,0.07943282347242815,1,0.4111067630001344
15,23,Control,0.0,0.1,0.07943282347242815,1,0.4191185609997774
15,24,Equal,0.1,0.1,0.07943282347242815,1,0.2873703799996292
15,25,Control,0.0,0.25,0.06309573444801932,1,0.6717546389991185
15,26,Control,0.0,0.25,0.05011872336272722,1,0.5547779400003492
15,27,Control,0.0,0.1,0.06309573444801932,1,0.4381991720001679
15,28,Decrease,0.25,0.1,0.015848931924611127,1,0.706184602000576
15,29,Decrease,0.25,0.1,0.012589254117941666,0,0.6134172749989375
15,30,Control,0.0,0.1,0.05011872336272722,1,0.5047728370009281
15,31,Equal,0.25,0.25,0.031622776601683784,1,0.5814857279983698
15,32,Equal,0.1,0.1,0.06309573444801932,1,0.5623824030008109
15,33,Equal,0.25,0.25,0.02511886431509579,0,0.8101246059995901
15,34,Control_null,0.0,0.1,0.1,1,0.8693438400005107
15,35,Control,0.0,0.25,0.03981071705534971,1,0.8628157700004522
15,36,Control,0.0,0.25,0.031622776601683784,1,0.8098733730003005
15,37,Increase,0.1,0.25,0.06309573444801932,1,0.5649805929988361
15,38,Control,0.0,0.25,0.02511886431509579,1,0.9581501490010851
15,39,Decrease,0.25,0.1,0.015848931924611127,1,0.7610590980002598
15,40,Control,0.0,0.25,0.01995262314968879,0,0.4681428749991028
15,41,Control,0.0,0.25,0.025118864315095794,1,0.4473889359996974
15,42,Control,0.0,0.25,0.01995262314968879,0,0.6508855470001436
15,43,Control,0.0,0.1,0.03981071705534971,1,0.7817374630012637
15,44,Equal_null,0.1,0.1,0.1,1,0.753204482000001
15,45,Equal,0.1,0.1,0.05011872336272722,1,0.7985119860004488
15,46,Decrease,0.25,0.1,0.012589254117941666,0,0.6156656179991842
15,47,Equal,0.1,0.1,0.03981071705534971,1,0.570892816000196
15,48,Control_null,0.0,0.25,0.1,1,1.1551556319991505
15,49,Decrease,0.25,0.1,0.015848931924611127,1,0.46201580699926126
15,50,Equal,0.1,0.1,0.031622776601683784,1,0.6023820070004149
15,51,Increase,0.1,0.25,0.05011872336272722,1,0.49954721100039023
15,52,Equal,0.1,0.1,0.02511886431509579,1,0.43731302699961816
15,53,Equal,0.1,0.1,0.01995262314968879,1,1.0569745830016473
15,54,Control_null,0.0,0.25,0.07943282347242815,1,0.46797568700094416
15,55,Increase,0.1,0.25,0.03981071705534971,1,0.4963343529998383
15,56,Control,0.0,0.1,0.031622776601683784,1,0.6125722929991753
15,57,Increase,0.1,0.25,0.031622776601683784,1,0.3519007529994269
15,58,Control,0.0,0.25,0.025118864315095794,1,0.5477806260005309
15,59,Increase,0.1,0.25,0.02511886431509579,1,0.42052469400005066
15,60,Increase,0.1,0.25,0.01995262314968879,0,0.6630131439997058
15,61,Equal,0.25,0.25,0.031622776601683784,1,0.6239416449989221
15,62,Equal,0.25,0.25,0.02511886431509579,1,0.4916309430009278
15,63,Increase,0.1,0.25,0.025118864315095794,1,0.7665702139984205
15,64,Control,0.0,0.1,0.02511886431509579,1,0.4567200209985458
15,65,Control,0.0,0.25,0.01995262314968879,1,0.7080958700007614
15,66,Control,0.0,0.25,0.015848931924611127,1,0.4791911730007996
15,67,Control,0.0,0.1,0.01995262314968879,1,0.4505094000014651
15,68,Equal,0.1,0.1,0.015848931924611127,0,0.5098037329989893
15,69,Equal,0.1,0.1,0.01995262314968879,0,0.584611780999694
15,70,Increase,0.1,0.25,0.01995262314968879,0,0.540188187998865
15,71,Increase,0.1,0.25,0.025118864315095794,1,0.44042814199929126
15,72,Control_null,0.0,0.1,0.07943282347242815,1,0.6324310589989182
15,73,Decrease,0.25,0.1,0.012589254117941666,0,0.6514974250003434
15,74,Equal,0.1,0.1,0.025118864315095794,1,0.4520151899996563
15,75,Control_null,0.0,0.25,0.06309573444801932,1,0.6549103759989521
15,76,Equal,0.1,0.1,0.01995262314968879,1,1.0111623960001452
15,77,Increase,0.1,0.25,0.01995262314968879,0,0.8281375880014821
15,78,Decrease,0.25,0.1,0.015848931924611127,0,0.7916741549997823
15,79,Control,0.0,0.1,0.015848931924611127,1,0.603811394999866
15,80,Increase,0.1,0.25,0.025118864315095794,1,0.4710392460001458
15,81,Control,0.0,0.1,0.012589254117941666,0,0.4993894689996523
15,82,Increase,0.1,0.25,0.01995262314968879,1,1.2062854159994458
15,83,Control,0.0,0.1,0.015848931924611127,1,0.5283963459987717
15,84,Control_null,0.0,0.25,0.05011872336272722,1,0.47554065300028014
15,85,Equal_null,0.25,0.25,0.1,1,0.45263723399875744
15,86,Decrease,0.25,0.1,0.01995262314968879,1,0.5689612570004101
15,87,Decrease,0.25,0.1,0.015848931924611127,0,0.9452345910012809
15,88,Decrease,0.25,0.1,0.01995262314968879,0,0.6521433479992993
15,89,Equal,0.25,0.25,0.01995262314968879,0,0.631315712000287
15,90,Equal,0.25,0.25,0.025118864315095794,0,0.5379844149993005
15,91,Equal,0.1,0.1,0.015848931924611127,0,0.3648188780007331
15,92,Equal_null,0.1,0.1,0.07943282347242815,1,0.16093190199899254
15,93,Increase,0.1,0.25,0.015848931924611127,0,0.4124414699999761
15,94,Equal,0.25,0.25,0.031622776601683784,1,0.34356790599849774
15,95,Control,0.0,0.25,0.012589254117941666,0,0.40500343200073985
15,96,Equal,0.25,0.25,0.02511886431509579,0,0.09380152099947736
15,97,Equal,0.1,0.1,0.01995262314968879,0,0.15209328600030858
15,98,Control,0.0,0.1,0.012589254117941666,1,0.9361315130008734
15,99,Control,0.0,0.1,0.009999999999999995,0,99
15,100,Increase_null,0.1,0.25,0.05011872336272722,1,0.6447245540002768
15,101,Equal,0.1,0.1,0.025118864315095794,0,0.9198780949991487
15,102,Control,0.0,0.25,0.015848931924611127,0,0.44166250499984017
15,103,Control,0.0,0.1,0.012589254117941666,0,0.5959157919987774
15,104,Control,0.0,0.1,0.015848931924611127,0,0.647588784000618
15,105,Equal_null,0.1,0.1,0.06309573444801932,1,0.5155660079999507
15,106,Increase,0.1,0.25,0.01995262314968879,0,0.558899110999846
15,107,Increase,0.1,0.25,0.025118864315095794,0,0.6363866050014622
15,108,Equal_null,0.1,0.1,0.05011872336272722,1,0.40023085000029823
15,109,Control,0.0,0.1,0.01995262314968879,0,0.18507208899973193
15,110,Equal,0.1,0.1,0.031622776601683784,1,0.4846346599988465
15,111,Increase,0.1,0.25,0.031622776601683784,1,0.6043020090000937
15,112,Decrease_null,0.25,0.1,0.07943282347242815,1,0.5998869970007945
15,113,Equal,0.25,0.25,0.031622776601683784,1,1.0010263359999954
15,114,Increase_null,0.1,0.25,0.03981071705534971,1,0.6363110450001841
15,115,Equal,0.1,0.1,0.02511886431509579,0,0.6461555559999397
15,116,Equal,0.25,0.25,0.02511886431509579,1,0.8097535969991441
15,117,Decrease,0.25,0.1,0.025118864315095794,1,0.5405425190001552
15,118,Control,0.0,0.25,0.01995262314968879,1,0.5850673530003405
15,119,Control,0.0,0.1,0.025118864315095794,0,0.6599492019995523
15,120,Equal,0.1,0.1,0.031622776601683784,1,0.6273270509991562
15,121,Increase,0.1,0.25,0.02511886431509579,1,0.4462991870004771
15,122,Equal,0.25,0.25,0.01995262314968879,1,0.4815176270003576
15,123,Equal_null,0.25,0.25,0.07943282347242815,1,0.4207571739989362
15,124,Increase,0.1,0.25,0.01995262314968879,0,0.6094899409999925
15,125,Equal,0.1,0.1,0.02511886431509579,1,0.7573101739999402
15,126,Increase,0.1,0.25,0.025118864315095794,1,0.7296142400009558
15,127,Control,0.0,0.25,0.015848931924611127,1,0.49036911399889505
15,128,Equal,0.1,0.1,0.01995262314968879,0,0.4855527389991039
15,129,Equal,0.25,0.25,0.015848931924611127,0,0.783021170000211
15,130,Increase,0.1,0.25,0.01995262314968879,0,0.7461570929990557
15,131,Increase,0.1,0.25,0.025118864315095794,0,0.4742101990013907
15,132,Control,0.0,0.1,0.031622776601683784,1,0.4297603959985281
15,133,Equal,0.1,0.1,0.025118864315095794,1,0.4567640459990798
15,134,Decrease,0.25,0.1,0.01995262314968879,1,0.5171179860008124
15,135,Equal_null,0.1,0.1,0.03981071705534971,1,0.4880799170005048
15,136,Control,0.0,0.1,0.02511886431509579,1,0.7314154209998378
15,137,Decrease,0.25,0.1,0.015848931924611127,0,0.8066587409994099
15,138,Equal,0.25,0.25,0.01995262314968879,1,0.8037080300000525
15,139,Decrease,0.25,0.1,0.01995262314968879,1,0.7523286790001293
15,140,Equal,0.25,0.25,0.015848931924611127,0,0.6170308180007851
15,141,Control,0.0,0.25,0.012589254117941666,0,0.5481500990008499
15,142,Equal,0.1,0.1,0.01995262314968879,0,0.940597484999671
15,143,Equal,0.25,0.25,0.01995262314968879,0,0.7037444039997354
15,144,Increase,0.1,0.25,0.031622776601683784,1,0.4085941220000677
15,145,Increase,0.1,0.25,0.02511886431509579,1,0.5480796779993398
15,146,Equal,0.25,0.25,0.025118864315095794,1,0.4231936360010877
15,147,Control,0.0,0.25,0.015848931924611127,1,0.3619822260006913
15,148,Control_null,0.0,0.1,0.06309573444801932,1,0.5096758599993336
15,149,Control,0.0,0.1,0.01995262314968879,1,0.7527494480000314
15,150,Control,0.0,0.1,0.015848931924611127,1,0.7570834960006323
15,151,Control,0.0,0.25,0.012589254117941666,0,0.657103700999869
15,152,Control,0.0,0.25,0.015848931924611127,0,0.8615850360001787
15,153,Decrease,0.25,0.1,0.015848931924611127,1,0.5585946709998098
15,154,Decrease,0.25,0.1,0.012589254117941666,0,0.5516086440002255
15,155,Control,0.0,0.25,0.01995262314968879,0,0.6328687370005355
15,156,Increase,0.1,0.25,0.01995262314968879,0,0.7481859670006088
15,157,Increase,0.1,0.25,0.025118864315095794,1,1.0603389959997003
15,158,Equal_null,0.1,0.1,0.031622776601683784,1,0.7356616039996879
15,159,Equal,0.25,0.25,0.01995262314968879,1,0.5476852769988909
15,160,Equal,0.25,0.25,0.015848931924611127,0,0.7188927320003131
15,161,Equal,0.25,0.25,0.01995262314968879,0,0.7941081850003684
15,162,Control,0.0,0.1,0.012589254117941666,0,99
15,163,Decrease,0.25,0.1,0.015848931924611127,0,0.7215691019991937
15,164,Increase,0.1,0.25,0.01995262314968879,0,0.7270545339997625
15,165,Decrease,0.25,0.1,0.01995262314968879,0,0.7067022909996012
15,166,Equal,0.25,0.25,0.025118864315095794,1,0.4028637789997447
15,167,Control,0.0,0.25,0.025118864315095794,0,0.8220431579993601
15,168,Control,0.0,0.1,0.015848931924611127,0,0.735256305000803
15,169,Decrease_null,0.25,0.1,0.06309573444801932,1,0.490589708000698
15,170,Equal,0.25,0.25,0.01995262314968879,1,0.5228810509997857
15,171,Equal,0.1,0.1,0.025118864315095794,1,0.35873025200089614
15,172,Equal,0.25,0.25,0.015848931924611127,0,0.6980103280002368
15,173,Increase,0.1,0.25,0.025118864315095794,1,0.6211979899999278
15,174,Equal,0.1,0.1,0.01995262314968879,0,0.5200868379997701
15,175,Equal,0.25,0.25,0.01995262314968879,0,0.548081404000186
15,176,Equal,0.1,0.1,0.025118864315095794,0,0.6477966250004101
15,177,Equal,0.25,0.25,0.025118864315095794,1,0.33195726099984313
15,178,Increase,0.1,0.25,0.01995262314968879,0,0.6183760490002896
15,179,Decrease,0.25,0.1,0.025118864315095794,1,0.6022839580000436
15,180,Equal,0.25,0.25,0.01995262314968879,0,0.45266817200172227
15,181,Decrease,0.25,0.1,0.01995262314968879,1,0.48451949799891736
15,182,Control,0.0,0.1,0.01995262314968879,0,0.5768846579994715
15,183,Increase,0.1,0.25,0.025118864315095794,0,0.8421983139996883
15,184,Equal,0.1,0.1,0.031622776601683784,1,0.516979142999844
15,185,Control,0.0,0.25,0.031622776601683784,1,0.9844821710012184
15,186,Control,0.0,0.1,0.025118864315095794,1,0.5316830159990786
15,187,Control,0.0,0.25,0.02511886431509579,1,0.5028378879997035
15,188,Decrease,0.25,0.1,0.015848931924611127,0,0.40314125399891054
15,189,Equal,0.1,0.1,0.02511886431509579,0,0.5253374920011993
15,190,Control,0.0,0.25,0.01995262314968879,0,0.7065187729986064
15,191,Equal,0.25,0.25,0.025118864315095794,1,0.38246590200105857
15,192,Control,0.0,0.25,0.025118864315095794,1,0.8625076959997386
15,193,Decrease_null,0.25,0.1,0.05011872336272722,1,0.8980519199994887
15,194,Decrease,0.25,0.1,0.01995262314968879,1,0.4831596889998764
15,195,Equal,0.25,0.25,0.01995262314968879,0,0.6863390479993541
15,196,Control,0.0,0.1,0.01995262314968879,0,0.759384372000568
15,197,Control,0.0,0.25,0.01995262314968879,0,0.5149345099998754
15,198,Decrease,0.25,0.1,0.015848931924611127,0,0.5990345520003757
15,199,Increase,0.1,0.25,0.031622776601683784,1,0.5301111449989548
15,200,Decrease,0.25,0.1,0.01995262314968879,1,0.5811104240001441
15,201,Equal,0.25,0.25,0.025118864315095794,1,0.48848061399985454
15,202,Increase,0.1,0.25,0.02511886431509579,1,0.37876759900063917
15,203,Control,0.0,0.1,0.025118864315095794,1,0.6468791740007873
15,204,Increase,0.1,0.25,0.01995262314968879,0,0.6765938520002237
15,205,Control,0.0,0.1,0.01995262314968879,0,0.8280613739989349
15,206,Decrease,0.25,0.1,0.015848931924611127,0,0.6553711729993665
15,207,Equal_null,0.1,0.1,0.02511886431509579,1,0.5356312920011987
15,208,Equal,0.1,0.1,0.031622776601683784,1,0.42791893200046616
15,209,Increase,0.1,0.25,0.025118864315095794,0,0.3408624540006713
15,210,Equal,0.25,0.25,0.01995262314968879,0,0.5363317869996536
15,211,Control,0.0,0.1,0.025118864315095794,1,0.5371801179990143
15,212,Control,0.0,0.25,0.025118864315095794,1,1.0446028170008503
15,213,Decrease,0.25,0.1,0.01995262314968879,0,0.6397703660004481
15,214,Increase,0.1,0.25,0.031622776601683784,1,0.5172192989994073
15,215,Increase,0.1,0.25,0.02511886431509579,1,0.4151395139997476
15,216,Control,0.0,0.25,0.01995262314968879,0,0.47639276500012784
15,217,Decrease,0.25,0.1,0.025118864315095794,1,0.7974817760004953
15,218,Increase,0.1,0.25,0.01995262314968879,0,0.6487626369998907
15,219,Equal,0.1,0.1,0.02511886431509579,1,0.7400228040005459
15,220,Equal,0.25,0.25,0.025118864315095794,1,0.6931087840002874
15,221,Equal,0.25,0.25,0.01995262314968879,0,0.48822813700098777
15,222,Equal,0.1,0.1,0.01995262314968879,0,0.5784663350004848
15,223,Increase,0.1,0.25,0.025118864315095794,1,0.5017279240000789
15,224,Increase_null,0.1,0.25,0.031622776601683784,1,0.2966448879997188
15,225,Decrease_null,0.25,0.1,0.03981071705534971,1,0.5640764180006954
15,226,Equal,0.25,0.25,0.025118864315095794,0,0.6893270870004926
15,227,Control,0.0,0.25,0.025118864315095794,1,0.4282422319993202
15,228,Equal,0.25,0.25,0.031622776601683784,1,0.31854176900014863
15,229,Decrease,0.25,0.1,0.01995262314968879,0,0.4898695880001469
15,230,Control,0.0,0.25,0.01995262314968879,0,0.45777305599949614
15,231,Decrease,0.25,0.1,0.025118864315095794,1,0.502064412999971
15,232,Equal,0.1,0.1,0.025118864315095794,1,0.44920427900069626
15,233,Equal_null,0.1,0.1,0.01995262314968879,1,0.6334740250003961
15,234,Equal,0.25,0.25,0.02511886431509579,1,0.5487452149991441
15,235,Decrease,0.25,0.1,0.01995262314968879,0,0.527790381000159
15,236,Equal,0.1,0.1,0.01995262314968879,0,0.4748481590013398
15,237,Equal,0.25,0.25,0.01995262314968879,0,0.7023085710006853
15,238,Control_null,0.0,0.25,0.03981071705534971,1,0.4813654879999376
15,239,Equal,0.1,0.1,0.025118864315095794,0,0.6153434739990189
15,240,Equal,0.25,0.25,0.025118864315095794,0,1.1279468970005837
15,241,Decrease,0.25,0.1,0.025118864315095794,0,0.6031183249997412
15,242,Equal,0.1,0.1,0.031622776601683784,1,0.600287199999002
15,243,Increase,0.1,0.25,0.01995262314968879,0,0.42043324500082235
15,244,Control,0.0,0.1,0.01995262314968879,0,0.49361455800135445
15,245,Control,0.0,0.25,0.025118864315095794,1,0.3445602179999696
15,246,Equal,0.25,0.25,0.031622776601683784,1,0.6169669219998468
15,247,Increase,0.1,0.25,0.025118864315095794,1,0.45227100100055395
15,248,Control,0.0,0.1,0.025118864315095794,0,0.5331080230007501
15,249,Control,0.0,0.25,0.01995262314968879,0,0.5204695930005983
15,250,Decrease,0.25,0.1,0.031622776601683784,1,0.507484886000384
15,251,Equal,0.25,0.25,0.02511886431509579,1,0.789651267001318
15,252,Control,0.0,0.25,0.025118864315095794,1,0.4487894609992509
15,253,Increase,0.1,0.25,0.01995262314968879,0,0.4199505529995804
15,254,Increase,0.1,0.25,0.025118864315095794,1,0.3523893710007542
15,255,Decrease,0.25,0.1,0.02511886431509579,1,0.38867521499923896
15,256,Decrease,0.25,0.1,0.01995262314968879,0,0.5061017200005153
15,257,Decrease,0.25,0.1,0.025118864315095794,1,0.4749269399999321
15,258,Equal,0.25,0.25,0.01995262314968879,1,0.4943384439993679
15,259,Equal_null,0.1,0.1,0.015848931924611127,1,0.3423595660005958
15,260,Control_null,0.0,0.1,0.05011872336272722,1,0.4815595519994531
15,261,Equal_null,0.1,0.1,0.012589254117941666,1,0.545711601000221
15,262,Decrease,0.25,0.1,0.01995262314968879,1,0.3965066030013986
15,263,Control,0.0,0.25,0.01995262314968879,0,0.43207978999998886
15,264,Decrease,0.25,0.1,0.015848931924611127,1,0.6033047679993615
15,265,Equal_null,0.1,0.1,0.009999999999999995,1,0.5664530659996672
15,266,Equal,0.25,0.25,0.015848931924611127,0,0.6416671909992147
15,267,Decrease,0.25,0.1,0.012589254117941666,0,0.3976430020011321
15,268,Control,0.0,0.1,0.031622776601683784,1,0.4582686180001474
15,269,Equal,0.1,0.1,0.02511886431509579,0,0.6541546640000888
15,270,Control,0.0,0.1,0.02511886431509579,1,0.4704396369997994
15,271,Decrease,0.25,0.1,0.015848931924611127,0,0.4494177070009755
15,272,Control,0.0,0.25,0.025118864315095794,1,0.713458468000681
15,273,Decrease,0.25,0.1,0.01995262314968879,1,1.0220735990005778
15,274,Control,0.0,0.25,0.01995262314968879,0,0.5741646119986399
15,275,Control,0.0,0.1,0.01995262314968879,0,0.5771518569999898
15,276,Increase,0.1,0.25,0.01995262314968879,0,99
15,277,Decrease,0.25,0.1,0.015848931924611127,0,0.5354416190002667
15,278,Increase,0.1,0.25,0.025118864315095794,1,0.9467769519997091
15,279,Decrease,0.25,0.1,0.01995262314968879,0,0.5350866640001186
15,280,Decrease,0.25,0.1,0.025118864315095794,1,0.546276687999125
15,281,Equal,0.1,0.1,0.031622776601683784,1,0.3985843919999752
15,282,Control,0.0,0.25,0.025118864315095794,1,0.41168123700117576
15,283,Equal,0.1,0.1,0.02511886431509579,0,0.5246163039992098
15,284,Equal_null,0.1,0.1,0.00794328234724281,1,0.6075807199995324
15,285,Equal,0.1,0.1,0.031622776601683784,1,0.5199092840011872
15,286,Decrease,0.25,0.1,0.01995262314968879,0,0.5244541759984713
15,287,Equal,0.1,0.1,0.02511886431509579,1,0.6682175530004315
15,288,Equal,0.1,0.1,0.01995262314968879,0,0.36748639500001445
15,289,Decrease,0.25,0.1,0.025118864315095794,0,0.7469297940006072
15,290,Equal,0.1,0.1,0.025118864315095794,1,0.6150712859998748
15,291,Equal,0.25,0.25,0.01995262314968879,0,0.45028015400021104
15,292,Control,0.0,0.1,0.025118864315095794,0,0.41347422299986647
15,293,Equal,0.1,0.1,0.01995262314968879,0,0.5124195370008238
15,294,Increase,0.1,0.25,0.01995262314968879,0,0.48513931700108515
15,295,Equal,0.1,0.1,0.025118864315095794,1,0.5065626350005914
15,296,Control,0.0,0.25,0.01995262314968879,0,0.37791894400106685
15,297,Control,0.0,0.25,0.025118864315095794,0,0.4932481899995764
15,298,Control,0.0,0.25,0.031622776601683784,1,0.46261148399935337
15,299,Control_null,0.0,0.1,0.03981071705534971,1,0.4497607789999165
15,300,Control,0.0,0.25,0.02511886431509579,1,0.5696933639992494
15,301,Control,0.0,0.25,0.01995262314968879,0,0.5973940189996938
15,302,Control,0.0,0.1,0.031622776601683784,1,0.3762754159997712
15,303,Control,0.0,0.25,0.025118864315095794,1,0.38770472500073083
15,304,Equal,0.25,0.25,0.025118864315095794,0,0.43969970299986016
15,305,Control,0.0,0.1,0.02511886431509579,1,0.4107803689985303
15,306,Control,0.0,0.25,0.01995262314968879,1,0.4540520549999201
15,307,Equal,0.25,0.25,0.031622776601683784,1,0.3627180680014135
15,308,Increase,0.1,0.25,0.025118864315095794,1,0.7187195599999541
15,309,Increase,0.1,0.25,0.01995262314968879,0,0.6394969020002463
15,310,Equal,0.1,0.1,0.01995262314968879,0,0.5939378019993455
15,311,Equal,0.25,0.25,0.02511886431509579,0,0.6991022959991824
15,312,Control,0.0,0.1,0.01995262314968879,0,0.5661487170000328
15,313,Control,0.0,0.1,0.025118864315095794,1,0.5675780579986167
15,314,Decrease,0.25,0.1,0.031622776601683784,1,0.35437649300001794
15,315,Equal,0.1,0.1,0.025118864315095794,1,0.917551223999908
15,316,Control,0.0,0.1,0.01995262314968879,0,0.4325686560005124
15,317,Increase,0.1,0.25,0.025118864315095794,1,0.42891744900043705
15,318,Control,0.0,0.25,0.015848931924611127,0,0.4882420539997838
15,319,Decrease,0.25,0.1,0.02511886431509579,1,0.38660612300009234
15,320,Decrease,0.25,0.1,0.01995262314968879,1,0.46385134999945876
15,321,Increase,0.1,0.25,0.01995262314968879,0,0.5481324749998748
15,322,Equal,0.1,0.1,0.01995262314968879,0,0.597083198999826
15,323,Control,0.0,0.25,0.01995262314968879,0,0.36830692700095824
15,324,Increase,0.1,0.25,0.025118864315095794,0,0.6483573299992713
15,325,Decrease,0.25,0.1,0.015848931924611127,0,0.5231757239998842
15,326,Equal,0.1,0.1,0.025118864315095794,1,0.4606723519991647
15,327,Increase,0.1,0.25,0.031622776601683784,1,0.7918537320001633
15,328,Control,0.0,0.25,0.025118864315095794,1,0.450810210999407
15,329,Decrease,0.25,0.1,0.01995262314968879,1,0.8861871030003385
15,330,Control,0.0,0.25,0.01995262314968879,1,0.41748744399956195
15,331,Control,0.0,0.25,0.015848931924611127,1,0.5740051039992977
15,332,Equal,0.1,0.1,0.01995262314968879,0,0.8080766980001499
15,333,Equal,0.25,0.25,0.031622776601683784,1,0.972206141001152
15,334,Decrease,0.25,0.1,0.015848931924611127,0,0.6724710459984635
15,335,Equal,0.25,0.25,0.02511886431509579,0,0.8254515759999776
15,336,Equal,0.25,0.25,0.031622776601683784,1,0.38780649900036224
15,337,Decrease,0.25,0.1,0.01995262314968879,1,0.5959694699995453
15,338,Decrease,0.25,0.1,0.015848931924611127,0,0.6081166410003789
15,339,Equal,0.25,0.25,0.02511886431509579,0,0.44909119499970984
15,340,Control,0.0,0.1,0.025118864315095794,0,0.7164778869992006
15,341,Equal,0.1,0.1,0.025118864315095794,1,0.4233655590014678
15,342,Control,0.0,0.1,0.031622776601683784,1,0.7556354610005656
15,343,Decrease,0.25,0.1,0.01995262314968879,0,0.53508851100014
15,344,Equal,0.25,0.25,0.031622776601683784,1,0.6582373789988196
15,345,Decrease_null,0.25,0.1,0.031622776601683784,1,0.6293920520001848
15,346,Control,0.0,0.1,0.02511886431509579,0,0.6735164999990957
15,347,Control,0.0,0.1,0.031622776601683784,1,0.5406850760009547
15,348,Increase_null,0.1,0.25,0.02511886431509579,1,0.44582481600082247
15,349,Equal,0.25,0.25,0.02511886431509579,1,0.5052612570016208
15,350,Control_null,0.0,0.1,0.031622776601683784,1,0.5212028000005375
15,351,Decrease,0.25,0.1,0.025118864315095794,1,0.5405277280005976
15,352,Control,0.0,0.1,0.02511886431509579,1,0.3417500850009674
15,353,Equal,0.1,0.1,0.01995262314968879,1,0.5216424200007168
15,354,Equal,0.1,0.1,0.015848931924611127,0,0.42918871699839656
15,355,Decrease,0.25,0.1,0.01995262314968879,1,0.9922961550000764
15,356,Equal,0.1,0.1,0.01995262314968879,0,0.5089390269986325
15,357,Control,0.0,0.25,0.012589254117941666,0,0.6236001509987545
15,358,Increase,0.1,0.25,0.02511886431509579,0,0.5459738849986024
15,359,Decrease,0.25,0.1,0.015848931924611127,0,0.38988282899845217
15,360,Equal,0.25,0.25,0.01995262314968879,0,1.0280342899986863
15,361,Increase,0.1,0.25,0.031622776601683784,1,0.48103457700017316
15,362,Control,0.0,0.25,0.015848931924611127,1,0.45237806500153965
15,363,Decrease,0.25,0.1,0.01995262314968879,0,0.2701189770014025
15,364,Control,0.0,0.1,0.01995262314968879,1,0.5694703190001746
15,365,Control,0.0,0.25,0.012589254117941666,0,0.4906763690014486
15,366,Decrease,0.25,0.1,0.025118864315095794,1,0.48578465600076015
15,367,Control,0.0,0.25,0.015848931924611127,0,0.5739319170006638
15,368,Equal,0.25,0.25,0.025118864315095794,1,0.5292047269995237
15,369,Increase,0.1,0.25,0.02511886431509579,1,0.5083745530009764
15,370,Equal,0.1,0.1,0.025118864315095794,1,0.7355894379998063
15,371,Control,0.0,0.1,0.015848931924611127,1,0.6267774869993445
15,372,Decrease,0.25,0.1,0.01995262314968879,0,0.7581283349991281
15,373,Equal,0.25,0.25,0.01995262314968879,0,0.5927539219992468
15,374,Equal,0.25,0.25,0.025118864315095794,0,0.42221741499997734
15,375,Equal,0.1,0.1,0.01995262314968879,0,0.4013102670014632
15,376,Increase,0.1,0.25,0.01995262314968879,0,0.45922940499986
15,377,Control,0.0,0.1,0.012589254117941666,0,0.5184782929991343
15,378,Equal,0.1,0.1,0.025118864315095794,1,0.35102701600044384
15,379,Equal,0.1,0.1,0.01995262314968879,0,0.6982904460001009
15,380,Equal_null,0.1,0.1,0.0063095734448019285,1,0.42747693000092113
15,381,Control,0.0,0.25,0.01995262314968879,0,0.4463636270011193
15,382,Equal,0.1,0.1,0.025118864315095794,1,0.4485645630011277
15,383,Control_null,0.0,0.25,0.031622776601683784,1,0.5306866619994253
15,384,Increase,0.1,0.25,0.025118864315095794,1,0.4459265649984445
15,385,Control,0.0,0.25,0.025118864315095794,1,0.3543221389991231
15,386,Control,0.0,0.1,0.015848931924611127,0,0.3656192540001939
15,387,Equal,0.1,0.1,0.01995262314968879,1,0.7552971219993196
15,388,Equal,0.1,0.1,0.015848931924611127,0,0.6471159969987639
15,389,Increase,0.1,0.25,0.01995262314968879,0,0.511955713000134
15,390,Equal,0.25,0.25,0.031622776601683784,1,0.32327447299940104
15,391,Decrease,0.25,0.1,0.025118864315095794,1,0.3952014609985781
15,392,Increase,0.1,0.25,0.025118864315095794,1,0.4638567330002843
15,393,Equal,0.1,0.1,0.01995262314968879,0,0.5515553029999865
15,394,Decrease,0.25,0.1,0.01995262314968879,0,0.8511923990008654
15,395,Decrease,0.25,0.1,0.025118864315095794,0,0.5182633799995529
15,396,Decrease,0.25,0.1,0.031622776601683784,1,0.48166154399950756
15,397,Control,0.0,0.1,0.01995262314968879,0,0.4204597600000852
15,398,Control,0.0,0.25,0.01995262314968879,0,0.5517408569994586
15,399,Control,0.0,0.25,0.025118864315095794,0,0.5872051580008701
15,400,Decrease,0.25,0.1,0.02511886431509579,0,0.43143834699912986
15,401,Equal,0.25,0.25,0.02511886431509579,0,0.5087211869995372
15,402,Equal_null,0.1,0.1,0.005011872336272719,1,0.39755055099885794
15,403,Equal_null,0.25,0.25,0.06309573444801932,1,0.3128123160004179
15,404,Decrease,0.25,0.1,0.031622776601683784,1,0.4007520180002757
15,405,Equal,0.1,0.1,0.025118864315095794,1,0.33974929900068673
15,406,Equal,0.25,0.25,0.031622776601683784,1,0.3803596359994117
15,407,Control,0.0,0.25,0.031622776601683784,1,0.408607667999604
15,408,Equal,0.1,0.1,0.01995262314968879,0,0.6907532000004721
15,409,Control,0.0,0.1,0.025118864315095794,1,0.6867061840002862
15,410,Equal,0.25,0.25,0.02511886431509579,0,1.025000114001159
15,411,Equal,0.1,0.1,0.025118864315095794,1,0.4692187050004577
15,412,Control,0.0,0.1,0.01995262314968879,1,0.8324432729987166
15,413,Equal,0.25,0.25,0.031622776601683784,1,0.7892345140007819
15,414,Decrease,0.25,0.1,0.02511886431509579,0,0.9209831369989843
15,415,Control,0.0,0.25,0.02511886431509579,1,1.105854499999623
15,416,Equal,0.25,0.25,0.02511886431509579,1,0.7730990849995578
15,417,Decrease,0.25,0.1,0.031622776601683784,1,0.5744107780010381
15,418,Decrease_null,0.25,0.1,0.02511886431509579,1,0.48967983100010315
15,419,Control,0.0,0.25,0.01995262314968879,0,0.6417215600013151
15,420,Control,0.0,0.1,0.015848931924611127,0,0.4769334490010806
15,421,Increase,0.1,0.25,0.01995262314968879,0,0.776266470000337
15,422,Decrease,0.25,0.1,0.02511886431509579,1,0.5071594119999645
15,423,Increase,0.1,0.25,0.025118864315095794,1,0.3503854600003251
15,424,Equal,0.1,0.1,0.01995262314968879,0,0.5295847059987864
15,425,Equal,0.1,0.1,0.025118864315095794,1,0.44467639200047415
15,426,Equal,0.1,0.1,0.01995262314968879,0,0.6025576840002032
15,427,Decrease,0.25,0.1,0.01995262314968879,0,0.9190428950005298
15,428,Control,0.0,0.25,0.025118864315095794,1,0.4071790460002376
15,429,Increase_null,0.1,0.25,0.01995262314968879,1,0.9224025519997667
15,430,Control,0.0,0.1,0.01995262314968879,0,0.8826192989999981
15,431,Control,0.0,0.25,0.01995262314968879,0,0.7670225530000607
15,432,Control,0.0,0.25,0.025118864315095794,0,0.4949444619996939
15,433,Control,0.0,0.1,0.025118864315095794,1,0.3863515640005062
15,434,Increase,0.1,0.25,0.01995262314968879,0,0.5415657339999598
15,435,Increase,0.1,0.25,0.025118864315095794,1,0.929895581000892
15,436,Control,0.0,0.1,0.01995262314968879,0,0.468962315000681
15,437,Increase,0.1,0.25,0.01995262314968879,0,0.5200156049995712
15,438,Decrease,0.25,0.1,0.025118864315095794,0,0.7153331490007986
15,439,Decrease,0.25,0.1,0.031622776601683784,1,0.37559224600045127
15,440,Increase,0.1,0.25,0.025118864315095794,1,0.32286676799958514
15,441,Increase,0.1,0.25,0.01995262314968879,0,0.6429771459988842
15,442,Control,0.0,0.1,0.025118864315095794,1,0.33412883399978455
15,443,Decrease_null,0.25,0.1,0.01995262314968879,1,0.5431687770014832
15,444,Increase,0.1,0.25,0.025118864315095794,0,1.1784540449989436
15,445,Control_null,0.0,0.1,0.02511886431509579,1,0.6116176129999076
15,446,Equal,0.25,0.25,0.01995262314968879,1,0.41470396100157814
15,447,Control,0.0,0.1,0.01995262314968879,0,0.8419860180001706
15,448,Equal,0.1,0.1,0.025118864315095794,1,1.2923518360003072
15,449,Equal,0.25,0.25,0.015848931924611127,0,0.6632381470008113
15,450,Increase,0.1,0.25,0.031622776601683784,1,0.5155144780001137
15,451,Equal,0.1,0.1,0.01995262314968879,0,0.46271623299981
15,452,Control,0.0,0.25,0.031622776601683784,1,0.4832192859994393
15,453,Increase,0.1,0.25,0.02511886431509579,0,0.49538504900010594
15,454,Decrease,0.25,0.1,0.02511886431509579,1,0.6960773529990547
15,455,Equal,0.25,0.25,0.01995262314968879,0,0.4994739699995989
15,456,Equal,0.1,0.1,0.025118864315095794,1,0.5955190880013106
15,457,Control,0.0,0.1,0.025118864315095794,1,0.5439525609999691
15,458,Equal,0.1,0.1,0.01995262314968879,0,0.4248662290010543
15,459,Decrease,0.25,0.1,0.01995262314968879,0,0.7481922940005461
15,460,Control,0.0,0.1,0.01995262314968879,0,0.5593238030014618
15,461,Increase,0.1,0.25,0.031622776601683784,1,0.3385598029999528
15,462,Decrease,0.25,0.1,0.025118864315095794,1,0.44588214800023707
15,463,Decrease,0.25,0.1,0.01995262314968879,0,0.39272239899946726
15,464,Control,0.0,0.25,0.02511886431509579,1,0.5720165379989339
15,465,Control,0.0,0.1,0.025118864315095794,1,0.5283838889990875
15,466,Decrease,0.25,0.1,0.025118864315095794,1,0.3482151789994532
15,467,Control,0.0,0.25,0.01995262314968879,0,0.40552269399995566
15,468,Equal,0.1,0.1,0.025118864315095794,1,0.3769390810011828
15,469,Equal,0.1,0.1,0.01995262314968879,0,0.3691497439995146
15,470,Control,0.0,0.1,0.01995262314968879,0,0.6039115339990531
15,471,Equal,0.25,0.25,0.025118864315095794,1,0.5905921590001526
15,472,Increase,0.1,0.25,0.02511886431509579,0,0.44173060600041936
15,473,Control,0.0,0.1,0.025118864315095794,1,0.3329104799995548
15,474,Control,0.0,0.1,0.01995262314968879,0,0.5681341529998463
15,475,Increase,0.1,0.25,0.031622776601683784,1,0.26680056499935745
15,476,Equal,0.25,0.25,0.01995262314968879,1,0.8703707909990044
15,477,Control_null,0.0,0.1,0.01995262314968879,1,0.5613905979989795
15,478,Control,0.0,0.25,0.025118864315095794,1,0.5420502180004405
15,479,Increase,0.1,0.25,0.02511886431509579,0,0.5850077000013698
15,480,Increase,0.1,0.25,0.031622776601683784,1,0.5561552580002171
15,481,Control,0.0,0.25,0.01995262314968879,0,0.4389584630007448
15,482,Decrease,0.25,0.1,0.01995262314968879,1,0.3551055930001894
15,483,Equal,0.1,0.1,0.025118864315095794,1,0.2761948110000958
15,484,Control,0.0,0.1,0.025118864315095794,1,0.30346016500152473
15,485,Decrease_null,0.25,0.1,0.015848931924611127,1,0.2667687510001997
15,486,Equal,0.1,0.1,0.01995262314968879,0,0.44406725199951325
15,487,Control,0.0,0.1,0.01995262314968879,0,0.5672612649996154
15,488,Equal,0.1,0.1,0.025118864315095794,1,0.5201829779998661
15,489,Control,0.0,0.1,0.025118864315095794,0,0.747526363000361
15,490,Equal,0.25,0.25,0.015848931924611127,0,0.4467330019997462
15,491,Control,0.0,0.1,0.031622776601683784,1,0.4909206770007586
15,492,Decrease,0.25,0.1,0.015848931924611127,0,0.6141194660012843
15,493,Control,0.0,0.25,0.025118864315095794,1,0.5623755779997737
15,494,Increase,0.1,0.25,0.02511886431509579,0,0.5243218790001265
15,495,Control,0.0,0.1,0.02511886431509579,1,0.3836338199998863
15,496,Decrease,0.25,0.1,0.01995262314968879,1,0.6728910880010517
15,497,Increase,0.1,0.25,0.031622776601683784,1,0.38596945599965693
15,498,Control,0.0,0.1,0.01995262314968879,0,0.4530422030002228
15,499,Control,0.0,0.25,0.01995262314968879,0,1.2133891960002074
15,500,Equal,0.25,0.25,0.01995262314968879,0,0.8965763569995033
15,501,Decrease,0.25,0.1,0.015848931924611127,0,0.5398640310013434
15,502,Increase,0.1,0.25,0.02511886431509579,1,0.5670812770003977
15,503,Equal,0.1,0.1,0.01995262314968879,1,0.346270199999708
15,504,Control,0.0,0.1,0.025118864315095794,1,0.757546105000074
15,505,Control,0.0,0.25,0.025118864315095794,1,0.3695876479996514
15,506,Control,0.0,0.25,0.01995262314968879,1,0.42340964899995015
15,507,Equal,0.1,0.1,0.015848931924611127,0,0.5929424820005806
15,508,Decrease,0.25,0.1,0.01995262314968879,0,0.45210591700015357
15,509,Equal,0.25,0.25,0.025118864315095794,1,0.44419737799944414
15,510,Decrease,0.25,0.1,0.025118864315095794,0,1.0316050479996193
15,511,Increase,0.1,0.25,0.01995262314968879,0,1.1068179100002453
15,512,Equal,0.25,0.25,0.01995262314968879,0,99
15,513,Decrease,0.25,0.1,0.031622776601683784,1,0.8300395220012433
15,514,Increase,0.1,0.25,0.025118864315095794,1,0.7441399510007614
15,515,Control,0.0,0.25,0.015848931924611127,1,0.3245790090004448
15,516,Equal,0.1,0.1,0.01995262314968879,0,99
15,517,Decrease,0.25,0.1,0.02511886431509579,0,1.1229121430005762
15,518,Decrease,0.25,0.1,0.031622776601683784,1,0.5119298319987138
15,519,Equal,0.25,0.25,0.025118864315095794,1,0.8445978230010951
15,520,Decrease,0.25,0.1,0.02511886431509579,1,0.3891701650009054
15,521,Equal,0.25,0.25,0.01995262314968879,0,0.43243531999905827
15,522,Control,0.0,0.25,0.012589254117941666,0,0.5056444609999744
15,523,Decrease,0.25,0.1,0.01995262314968879,1,0.34908640399953583
15,524,Increase,0.1,0.25,0.01995262314968879,1,0.2638572110008681
15,525,Increase,0.1,0.25,0.015848931924611127,0,0.3121953139998368
15,526,Equal,0.1,0.1,0.025118864315095794,1,0.46037541099940427
15,527,Increase,0.1,0.25,0.01995262314968879,1,0.5022858359989186
15,528,Control,0.0,0.1,0.01995262314968879,0,0.4095785440003965
15,529,Control,0.0,0.1,0.025118864315095794,1,0.7171390439998504
15,530,Increase,0.1,0.25,0.015848931924611127,0,0.5363310400007322
15,531,Control,0.0,0.1,0.01995262314968879,0,0.3018093820010108
15,532,Control,0.0,0.25,0.015848931924611127,1,0.6592998769992846
15,533,Control,0.0,0.1,0.025118864315095794,1,0.4196935559994017
15,534,Equal,0.1,0.1,0.01995262314968879,0,0.28696876100002555
15,535,Increase,0.1,0.25,0.01995262314968879,0,0.48007095499997376
15,536,Equal,0.1,0.1,0.025118864315095794,1,0.45137940299900947
15,537,Decrease,0.25,0.1,0.015848931924611127,0,0.39033578599992325
15,538,Decrease,0.25,0.1,0.01995262314968879,0,0.28651350700056355
15,539,Control_null,0.0,0.25,0.02511886431509579,1,0.5780988650003565
15,540,Equal,0.25,0.25,0.025118864315095794,1,0.36399132599945005
15,541,Control_null,0.0,0.1,0.015848931924611127,1,0.42427907999990566
15,542,Equal,0.1,0.1,0.01995262314968879,0,0.3954167570009304
15,543,Control_null,0.0,0.1,0.012589254117941666,1,0.5267296130004979
15,544,Increase_null,0.1,0.25,0.015848931924611127,1,0.37172868699963146
15,545,Decrease,0.25,0.1,0.025118864315095794,1,0.4722505600002478
15,546,Control,0.0,0.1,0.01995262314968879,0,0.8171753810001974
15,547,Increase_null,0.1,0.25,0.012589254117941666,1,0.6683848079992458
15,548,Decrease,0.25,0.1,0.01995262314968879,0,0.4203475860012986
15,549,Control,0.0,0.1,0.025118864315095794,0,0.4249892389998422
15,550,Control,0.0,0.1,0.031622776601683784,0,0.8281423520002136
15,551,Control,0.0,0.25,0.012589254117941666,0,0.4357633790004911
15,552,Increase,0.1,0.25,0.025118864315095794,0,0.4550717189995339
15,553,Control,0.0,0.1,0.03981071705534971,1,0.3943424339995545
15,554,Increase,0.1,0.25,0.031622776601683784,1,0.44544914700054505
15,555,Control,0.0,0.25,0.015848931924611127,0,0.4879654249998566
15,556,Equal,0.25,0.25,0.01995262314968879,0,0.47475863300132914
15,557,Equal,0.1,0.1,0.025118864315095794,0,0.3033958760006499
15,558,Equal,0.1,0.1,0.031622776601683784,1,0.3087555499987502
15,559,Equal,0.25,0.25,0.025118864315095794,0,0.6467481620002218
15,560,Control,0.0,0.25,0.01995262314968879,0,0.5124979350002832
15,561,Control,0.0,0.1,0.031622776601683784,0,0.690163893999852
15,562,Decrease,0.25,0.1,0.025118864315095794,1,0.34836937000000034
15,563,Increase_null,0.1,0.25,0.009999999999999995,1,1.1094800749997376
15,564,Increase,0.1,0.25,0.02511886431509579,1,0.3602995609999198
15,565,Equal,0.25,0.25,0.031622776601683784,1,0.3955848989990045
15,566,Decrease,0.25,0.1,0.01995262314968879,1,0.286928016001184
15,567,Equal,0.1,0.1,0.02511886431509579,1,0.33799323700077366
15,568,Control,0.0,0.25,0.025118864315095794,1,0.43845037299979595
15,569,Decrease,0.25,0.1,0.015848931924611127,0,0.3855479039993952
15,570,Increase,0.1,0.25,0.01995262314968879,1,0.42203785899982904
15,571,Equal,0.1,0.1,0.01995262314968879,0,0.4751368800007185
15,572,Control,0.0,0.25,0.01995262314968879,1,0.474993881998671
15,573,Decrease,0.25,0.1,0.01995262314968879,1,0.3183993409984396
15,574,Control,0.0,0.25,0.015848931924611127,0,99
15,575,Increase,0.1,0.25,0.015848931924611127,1,0.4107621740004106
15,576,Equal,0.25,0.25,0.02511886431509579,1,0.40280877300028806
15,577,Decrease,0.25,0.1,0.015848931924611127,1,0.39894520200141415
15,578,Decrease,0.25,0.1,0.012589254117941666,0,0.5059144879996893
15,579,Equal,0.1,0.1,0.025118864315095794,0,0.38944326100136095
15,580,Control_null,0.0,0.25,0.01995262314968879,1,0.46451451100074337
15,581,Increase,0.1,0.25,0.012589254117941666,0,0.46782698899914976
15,582,Control_null,0.0,0.25,0.015848931924611127,1,0.5030972949989518
15,583,Equal,0.1,0.1,0.031622776601683784,1,0.33152564499869186
15,584,Decrease_null,0.25,0.1,0.012589254117941666,1,0.7128753349988983
15,585,Control,0.0,0.1,0.03981071705534971,1,0.36955911299992295
15,586,Decrease,0.25,0.1,0.015848931924611127,1,0.3486901649994252
15,587,Equal,0.25,0.25,0.01995262314968879,0,0.380887260000236
15,588,Control,0.0,0.25,0.01995262314968879,0,0.4877049890001217
15,589,Control,0.0,0.25,0.025118864315095794,1,0.4491124910000508
15,590,Decrease,0.25,0.1,0.012589254117941666,0,0.4604269489991566
15,591,Equal,0.1,0.1,0.02511886431509579,1,0.4638332899994566
15,592,Equal,0.25,0.25,0.025118864315095794,1,0.29168288899927575
15,593,Control,0.0,0.1,0.031622776601683784,1,0.27899137799977325
15,594,Decrease,0.25,0.1,0.015848931924611127,1,0.40221015099996293
15,595,Decrease,0.25,0.1,0.012589254117941666,0,0.5254509120004514
15,596,Increase_null,0.1,0.25,0.00794328234724281,1,0.6980225619990961
15,597,Decrease,0.25,0.1,0.015848931924611127,0,0.686889553000583
15,598,Decrease,0.25,0.1,0.01995262314968879,0,0.42262418400059687
15,599,Equal,0.1,0.1,0.01995262314968879,0,0.48986144000082277
15,600,Decrease,0.25,0.1,0.025118864315095794,0,0.5110904840003059
15,601,Control,0.0,0.25,0.01995262314968879,0,0.3942108039991581
15,602,Control,0.0,0.25,0.025118864315095794,1,0.4935328620013024
15,603,Control,0.0,0.1,0.02511886431509579,0,0.36972447100015415
15,604,Control,0.0,0.1,0.031622776601683784,1,0.4207886979984323
15,605,Decrease,0.25,0.1,0.031622776601683784,1,0.30389979100073106
15,606,Control,0.0,0.1,0.02511886431509579,1,0.3393773930001771
15,607,Equal,0.1,0.1,0.025118864315095794,1,0.7521087730001454
15,608,Equal,0.25,0.25,0.01995262314968879,1,0.4520180679992336
15,609,Equal,0.1,0.1,0.01995262314968879,0,0.5560910269996384
15,610,Control,0.0,0.1,0.01995262314968879,0,0.5509318779986643
15,611,Increase,0.1,0.25,0.015848931924611127,0,0.6642111940000177
15,612,Equal,0.25,0.25,0.015848931924611127,0,0.5782748639994679
15,613,Increase,0.1,0.25,0.01995262314968879,0,0.4524630240011902
15,614,Equal,0.1,0.1,0.025118864315095794,1,0.35967074200016214
15,615,Increase,0.1,0.25,0.025118864315095794,1,0.474889750001239
15,616,Increase,0.1,0.25,0.01995262314968879,0,0.6702862929996627
15,617,Control,0.0,0.25,0.01995262314968879,0,1.0494231320008112
15,618,Decrease,0.25,0.1,0.02511886431509579,1,0.6454233180011215
15,619,Decrease,0.25,0.1,0.01995262314968879,1,0.5206827160000103
15,620,Equal,0.25,0.25,0.01995262314968879,0,0.36381536400040204
15,621,Decrease,0.25,0.1,0.015848931924611127,0,0.375844127000164
15,622,Equal,0.1,0.1,0.01995262314968879,0,0.42416790400056925
15,623,Control,0.0,0.1,0.025118864315095794,1,0.4431959249995998
15,624,Control,0.0,0.25,0.025118864315095794,1,0.48459838800044963
15,625,Increase,0.1,0.25,0.025118864315095794,1,0.3275468970005022
15,626,Increase,0.1,0.25,0.01995262314968879,0,0.792949292999765
15,627,Decrease,0.25,0.1,0.01995262314968879,1,0.43615011799920467
15,628,Control,0.0,0.25,0.01995262314968879,1,0.8074861949990009
15,629,Increase,0.1,0.25,0.025118864315095794,0,0.48265121599979466
15,630,Control,0.0,0.25,0.015848931924611127,0,0.5095688790006534
15,631,Control,0.0,0.1,0.01995262314968879,0,0.5927433670003666
15,632,Equal,0.25,0.25,0.025118864315095794,1,0.5960751570000866
15,633,Decrease,0.25,0.1,0.015848931924611127,1,0.6063421590006328
15,634,Control,0.0,0.1,0.025118864315095794,1,0.4265038170015032
15,635,Control,0.0,0.1,0.01995262314968879,0,0.7146079770009237
15,636,Equal,0.25,0.25,0.01995262314968879,0,0.38985568399948534
15,637,Decrease,0.25,0.1,0.012589254117941666,0,0.25386356200033333
15,638,Control,0.0,0.1,0.025118864315095794,0,0.30623346399988804
15,639,Equal,0.1,0.1,0.025118864315095794,1,0.4763781870005914
15,640,Decrease,0.25,0.1,0.015848931924611127,1,0.4555713889985782
15,641,Increase,0.1,0.25,0.031622776601683784,1,0.2986549620000005
15,642,Equal,0.25,0.25,0.025118864315095794,1,0.365849686000729
15,643,Increase,0.1,0.25,0.02511886431509579,1,0.30501682099929894
15,644,Control,0.0,0.25,0.01995262314968879,0,0.6374235499988572
15,645,Increase,0.1,0.25,0.01995262314968879,0,0.4500812770002085
15,646,Decrease,0.25,0.1,0.012589254117941666,0,0.4746432520005328
15,647,Control,0.0,0.1,0.031622776601683784,1,0.36583749200144666
15,648,Equal_null,0.25,0.25,0.05011872336272722,1,0.48611881800025003
15,649,Increase,0.1,0.25,0.025118864315095794,0,0.545309327000723
15,650,Increase_null,0.1,0.25,0.0063095734448019285,1,0.3222111880004377
15,651,Increase,0.1,0.25,0.031622776601683784,1,0.7016954419996182
15,652,Decrease,0.25,0.1,0.015848931924611127,0,0.4800678989995504
15,653,Increase,0.1,0.25,0.02511886431509579,1,0.35495773000002373
15,654,Control,0.0,0.1,0.02511886431509579,0,0.31847474700043676
15,655,Increase,0.1,0.25,0.01995262314968879,0,0.3383002989994566
15,656,Decrease,0.25,0.1,0.01995262314968879,1,0.3655967810009315
15,657,Decrease,0.25,0.1,0.015848931924611127,0,0.42568511600075
15,658,Control_null,0.0,0.1,0.009999999999999995,1,0.4464932200007752
15,659,Control,0.0,0.25,0.025118864315095794,0,0.5423004829990532
15,660,Equal,0.1,0.1,0.01995262314968879,0,0.569441736999579
15,661,Decrease,0.25,0.1,0.01995262314968879,1,0.3945296319998306
15,662,Control,0.0,0.25,0.031622776601683784,1,0.27766256100039755
15,663,Equal,0.1,0.1,0.025118864315095794,1,0.4298447279998072
15,664,Equal,0.1,0.1,0.01995262314968879,0,0.5126930739988893
15,665,Control,0.0,0.25,0.02511886431509579,1,0.7483014199988247
15,666,Equal,0.25,0.25,0.01995262314968879,0,0.49556357999972533
15,667,Equal,0.1,0.1,0.025118864315095794,1,0.6427122750010312
15,668,Equal,0.25,0.25,0.025118864315095794,1,0.4697438699986378
15,669,Equal,0.25,0.25,0.01995262314968879,0,0.6240391880000971
15,670,Control,0.0,0.25,0.01995262314968879,0,0.6859212440012925
15,671,Increase,0.1,0.25,0.025118864315095794,1,0.5852977150007064
15,672,Control,0.0,0.1,0.031622776601683784,1,0.3143021289997705
15,673,Equal_null,0.25,0.25,0.03981071705534971,1,0.46968712099987897
15,674,Control,0.0,0.25,0.025118864315095794,1,0.47895805799998925
15,675,Control,0.0,0.25,0.01995262314968879,0,0.6420179469987488
15,676,Equal,0.1,0.1,0.01995262314968879,1,0.45029165399864723
15,677,Control,0.0,0.1,0.02511886431509579,0,0.6133727590004128
15,678,Equal,0.1,0.1,0.015848931924611127,0,0.4245948560001125
15,679,Equal,0.1,0.1,0.01995262314968879,0,0.5000642129998596
15,680,Equal,0.25,0.25,0.025118864315095794,1,0.36711671100056265
15,681,Control,0.0,0.1,0.031622776601683784,1,0.31424476400025014
15,682,Equal,0.1,0.1,0.025118864315095794,1,0.35044202399876667
15,683,Control,0.0,0.25,0.025118864315095794,0,0.4506404059993656
15,684,Equal,0.25,0.25,0.01995262314968879,0,0.5603325939991919
15,685,Increase,0.1,0.25,0.01995262314968879,0,0.3930041240000719
15,686,Increase,0.1,0.25,0.025118864315095794,1,0.4761709609992977
15,687,Control,0.0,0.25,0.031622776601683784,1,0.36426159999973606
15,688,Equal_null,0.25,0.25,0.031622776601683784,1,0.4312680380007805
15,689,Equal,0.1,0.1,0.01995262314968879,0,0.7196331360009935
15,690,Control,0.0,0.1,0.02511886431509579,1,0.427991311000369
15,691,Control_null,0.0,0.1,0.00794328234724281,1,0.45402919099979044
15,692,Control_null,0.0,0.1,0.0063095734448019285,1,0.5460834679997788
15,693,Increase_null,0.1,0.25,0.005011872336272719,1,0.42948347899982764
15,694,Increase,0.1,0.25,0.01995262314968879,0,0.4567547189999459
15,695,Equal,0.1,0.1,0.025118864315095794,1,0.4364974389991403
15,696,Control,0.0,0.25,0.02511886431509579,0,0.6889585869994335
15,697,Equal,0.25,0.25,0.025118864315095794,1,0.414143513999079
15,698,Increase,0.1,0.25,0.025118864315095794,1,0.33542755099915667
15,699,Control_null,0.0,0.25,0.012589254117941666,1,0.5385814889996254
15,700,Equal,0.25,0.25,0.01995262314968879,1,0.6904933610003354
15,701,Control,0.0,0.25,0.031622776601683784,1,0.4619870019996597
15,702,Control,0.0,0.1,0.01995262314968879,0,0.2941794599992136
15,703,Control,0.0,0.1,0.025118864315095794,0,0.4173390899995866
15,704,Equal_null,0.25,0.25,0.02511886431509579,1,0.4765945819999615
15,705,Control,0.0,0.25,0.02511886431509579,1,0.3037838029995328
15,706,Control,0.0,0.25,0.01995262314968879,1,0.49879738299932797
15,707,Control,0.0,0.25,0.015848931924611127,0,0.4710107810005866
15,708,Control,0.0,0.25,0.01995262314968879,0,0.48245203599981323
15,709,Increase,0.1,0.25,0.01995262314968879,0,0.39889236399903893
15,710,Equal,0.1,0.1,0.01995262314968879,0,0.634716357999423
15,711,Control,0.0,0.25,0.025118864315095794,1,0.29993209399981424
15,712,Equal,0.1,0.1,0.025118864315095794,0,0.5590383099988685
15,713,Increase,0.1,0.25,0.025118864315095794,1,0.33629924900014885
15,714,Control,0.0,0.25,0.01995262314968879,0,0.7634180049990391
15,715,Increase,0.1,0.25,0.01995262314968879,0,0.7074941969985957
15,716,Control,0.0,0.1,0.031622776601683784,1,0.3506513200009067
15,717,Equal,0.25,0.25,0.015848931924611127,0,0.4509692930005258
15,718,Equal,0.1,0.1,0.031622776601683784,1,0.34081249999871943
15,719,Equal,0.1,0.1,0.02511886431509579,1,0.4882558869994682
15,720,Increase,0.1,0.25,0.025118864315095794,1,0.40844697700049437
15,721,Control,0.0,0.25,0.025118864315095794,1,0.3404287339999428
15,722,Equal,0.1,0.1,0.01995262314968879,1,0.8071933489991352
15,723,Increase,0.1,0.25,0.01995262314968879,0,0.810774476000006
15,724,Control,0.0,0.1,0.02511886431509579,1,0.5181459150007868
15,725,Control_null,0.0,0.1,0.005011872336272719,1,0.3452805239994632
15,726,Equal,0.25,0.25,0.01995262314968879,0,0.33194422100132215
15,727,Control,0.0,0.25,0.01995262314968879,0,0.36902323700087436
15,728,Control,0.0,0.1,0.01995262314968879,1,0.4086730389990407
15,729,Equal,0.1,0.1,0.015848931924611127,0,0.5239533460007806
15,730,Equal,0.25,0.25,0.025118864315095794,1,0.6932914079989132
15,731,Equal,0.25,0.25,0.01995262314968879,0,0.8640645739997126
15,732,Control,0.0,0.1,0.015848931924611127,0,0.6013815610003803
15,733,Control,0.0,0.25,0.025118864315095794,1,0.34022649500002444
15,734,Control,0.0,0.1,0.01995262314968879,0,0.3919535229997564
15,735,Control,0.0,0.1,0.025118864315095794,0,0.6028178510005091
15,736,Decrease_null,0.25,0.1,0.009999999999999995,1,0.5182579760003136
15,737,Control,0.0,0.25,0.01995262314968879,0,0.5212966060007602
15,738,Control,0.0,0.25,0.025118864315095794,1,0.8217218939989834
15,739,Control,0.0,0.25,0.01995262314968879,0,0.4419541009992827
15,740,Control,0.0,0.1,0.031622776601683784,1,0.3580960680010321
15,741,Increase,0.1,0.25,0.025118864315095794,1,0.4621826530001272
15,742,Control,0.0,0.1,0.02511886431509579,0,0.6333180629990238
15,743,Equal,0.25,0.25,0.025118864315095794,1,0.41747140500046953
15,744,Control,0.0,0.1,0.031622776601683784,1,0.4360512889998063
15,745,Equal,0.25,0.25,0.01995262314968879,0,0.3818381559995032
15,746,Equal,0.1,0.1,0.01995262314968879,0,0.7527098410009785
15,747,Increase,0.1,0.25,0.01995262314968879,0,0.5400277250009822
15,748,Control,0.0,0.1,0.02511886431509579,1,0.3926300990005984
15,749,Equal,0.25,0.25,0.025118864315095794,1,0.33171093499913695
15,750,Equal,0.25,0.25,0.01995262314968879,1,0.45490766700095264
15,751,Equal,0.25,0.25,0.015848931924611127,0,0.7446131390006485
15,752,Control,0.0,0.1,0.01995262314968879,1,1.0626106370000343
15,753,Control,0.0,0.1,0.015848931924611127,0,0.514512712999931
15,754,Equal,0.25,0.25,0.01995262314968879,0,0.3864413950013841
15,755,Equal_null,0.25,0.25,0.01995262314968879,1,0.6217326859987224
15,756,Control,0.0,0.1,0.01995262314968879,0,0.5020758219998243
15,757,Equal,0.1,0.1,0.025118864315095794,1,0.41000956400057476
15,758,Equal,0.1,0.1,0.01995262314968879,0,0.595324296000399
15,759,Increase,0.1,0.25,0.025118864315095794,1,0.37456510700030776
15,760,Decrease_null,0.25,0.1,0.00794328234724281,1,0.40158887600046
15,761,Decrease_null,0.25,0.1,0.0063095734448019285,1,0.5574253419999877
15,762,Equal,0.1,0.1,0.025118864315095794,1,0.3440038469998399
15,763,Control,0.0,0.25,0.025118864315095794,1,0.44417897700077447
15,764,Increase,0.1,0.25,0.01995262314968879,0,0.44649972499973956
15,765,Equal,0.25,0.25,0.025118864315095794,1,0.411913336998623
15,766,Equal,0.25,0.25,0.01995262314968879,0,0.47235428299973137
15,767,Control,0.0,0.25,0.01995262314968879,0,0.3999465159995452
15,768,Equal,0.25,0.25,0.025118864315095794,0,0.6520739449988469
15,769,Increase,0.1,0.25,0.025118864315095794,0,0.5165330210002139
15,770,Control,0.0,0.1,0.025118864315095794,1,0.8475055540002359
15,771,Control,0.0,0.25,0.025118864315095794,1,0.4177154270000756
15,772,Control,0.0,0.1,0.01995262314968879,0,0.5407236179999018
15,773,Equal,0.1,0.1,0.01995262314968879,0,1.0082413689997338
15,774,Equal,0.25,0.25,0.031622776601683784,1,0.43527908000032767
15,775,Control,0.0,0.25,0.01995262314968879,0,0.5195187219997024
15,776,Equal,0.1,0.1,0.025118864315095794,1,0.3867267690002336
15,777,Increase,0.1,0.25,0.031622776601683784,1,0.40588897800080304
15,778,Equal,0.25,0.25,0.02511886431509579,1,0.4489369050006644
15,779,Control,0.0,0.1,0.025118864315095794,1,0.9163233460003539
15,780,Equal,0.1,0.1,0.01995262314968879,0,0.4453767479990347
15,781,Control,0.0,0.1,0.01995262314968879,0,0.6726162039994961
15,782,Control,0.0,0.1,0.025118864315095794,1,0.592715025999496
15,783,Increase,0.1,0.25,0.02511886431509579,1,0.3970209189992602
15,784,Decrease_null,0.25,0.1,0.005011872336272719,1,0.35696455399920524
15,785,Equal,0.25,0.25,0.01995262314968879,0,0.5124827810013812
15,786,Control,0.0,0.25,0.025118864315095794,1,0.5076631470001303
15,787,Equal,0.1,0.1,0.025118864315095794,1,0.5428295750007237
15,788,Increase,0.1,0.25,0.01995262314968879,0,0.39405870200062054
15,789,Equal,0.25,0.25,0.025118864315095794,0,0.8382875639999838
15,790,Equal,0.1,0.1,0.01995262314968879,0,0.34504165700127487
15,791,Control,0.0,0.1,0.01995262314968879,0,0.5726208279993443
15,792,Control,0.0,0.1,0.025118864315095794,1,0.4236375090004003
15,793,Control_null,0.0,0.25,0.009999999999999995,1,0.5368244589990354
15,794,Control,0.0,0.1,0.01995262314968879,0,0.5318964660000347
15,795,Control,0.0,0.25,0.01995262314968879,0,0.36377183200056606
15,796,Control_null,0.0,0.25,0.00794328234724281,1,0.5190773780013842
15,797,Control,0.0,0.1,0.025118864315095794,0,0.5375212700000702
15,798,Control,0.0,0.1,0.031622776601683784,1,0.3498584649987606
15,799,Increase,0.1,0.25,0.025118864315095794,0,0.5371066679999785
15,800,Equal,0.25,0.25,0.031622776601683784,1,0.29215906799981894
15,801,Control,0.0,0.25,0.025118864315095794,1,0.32748489700134087
15,802,Equal,0.25,0.25,0.02511886431509579,1,0.34985090299960575
15,803,Control,0.0,0.1,0.02511886431509579,1,0.35273969799891347
15,804,Control,0.0,0.1,0.01995262314968879,1,0.3547931740013155
15,805,Control,0.0,0.25,0.01995262314968879,0,0.42178242199952365
15,806,Equal,0.1,0.1,0.025118864315095794,1,0.2791888040010235
15,807,Control,0.0,0.1,0.015848931924611127,0,0.5706305120002071
15,808,Equal_null,0.25,0.25,0.015848931924611127,1,0.45855824399950507
15,809,Increase,0.1,0.25,0.031622776601683784,1,0.3658853540000564
15,810,Control,0.0,0.1,0.01995262314968879,0,0.3116961800005811
15,811,Control,0.0,0.25,0.025118864315095794,1,0.48318638100136013
15,812,Equal,0.1,0.1,0.01995262314968879,1,0.4541629280010966
15,813,Equal,0.1,0.1,0.015848931924611127,1,0.5534985869999218
15,814,Equal,0.25,0.25,0.01995262314968879,0,0.46278338900083327
15,815,Increase,0.1,0.25,0.02511886431509579,1,0.4205989239999326
15,816,Equal,0.25,0.25,0.025118864315095794,1,0.6140308580015699
15,817,Control,0.0,0.25,0.01995262314968879,0,0.4891688530005922
15,818,Control,0.0,0.25,0.025118864315095794,1,0.3884894519997033
15,819,Control,0.0,0.25,0.01995262314968879,0,0.4617869890007569
15,820,Equal,0.1,0.1,0.012589254117941666,0,0.3929073369999969
15,821,Increase,0.1,0.25,0.01995262314968879,0,0.39320576200043433
15,822,Equal,0.1,0.1,0.015848931924611127,0,99
15,823,Equal,0.1,0.1,0.01995262314968879,1,0.8795913499998278
15,824,Equal_null,0.25,0.25,0.012589254117941666,1,0.7864785499987192
15,825,Equal,0.25,0.25,0.01995262314968879,0,0.42158286800076894
15,826,Equal,0.25,0.25,0.025118864315095794,1,0.384802173000935
15,827,Equal,0.25,0.25,0.01995262314968879,0,0.6226261049996538
15,828,Equal,0.25,0.25,0.025118864315095794,1,0.4026342610013671
15,829,Equal,0.25,0.25,0.01995262314968879,0,0.4458032170005026
15,830,Equal,0.25,0.25,0.025118864315095794,1,0.5528953459997865
15,831,Equal,0.25,0.25,0.01995262314968879,0,0.5801248950010631
15,832,Equal,0.25,0.25,0.025118864315095794,1,0.3242056449998927
15,833,Equal,0.25,0.25,0.01995262314968879,0,0.47121212300044135
15,834,Equal_null,0.25,0.25,0.009999999999999995,1,0.6006352800013701
15,835,Equal_null,0.25,0.25,0.00794328234724281,1,0.35577377299887303
15,836,Equal_null,0.25,0.25,0.0063095734448019285,1,0.43086859799950616
15,837,Equal_null,0.25,0.25,0.005011872336272719,1,0.44201241599876084
15,838,Control_null,0.0,0.25,0.0063095734448019285,1,0.5483582480010227
15,839,Control_null,0.0,0.25,0.005011872336272719,1,0.7364120199999888
