Participant_Number,Trial_Number,Condition,FC_distal,FC_proximal,Target_Contrast,Correct_Response,Reaction_Time
7,0,Equal,0.1,0.1,0.1,1,0.5846536219996779
7,1,Control,0.0,0.25,0.1,1,0.2657149409988051
7,2,Control,0.0,0.25,0.07943282347242815,1,0.5492365070003871
7,3,Decrease,0.25,0.1,0.1,1,0.28552323499934573
7,4,Control,0.0,0.25,0.06309573444801932,1,0.5203732080008194
7,5,Increase,0.1,0.25,0.1,1,0.18554468200090923
7,6,Control,0.0,0.25,0.05011872336272722,1,0.5406430140010343
7,7,Increase,0.1,0.25,0.07943282347242815,1,0.2727889159996266
7,8,Control,0.0,0.25,0.03981071705534971,1,0.5081122280007548
7,9,Increase,0.1,0.25,0.06309573444801932,1,0.46471243199994205
7,10,Decrease,0.25,0.1,0.07943282347242815,1,0.4595721820005565
7,11,Increase,0.1,0.25,0.05011872336272722,1,0.6004376799992315
7,12,Increase,0.1,0.25,0.03981071705534971,1,0.466962988000887
7,13,Control,0.0,0.25,0.031622776601683784,1,0.6538833399990835
7,14,Increase,0.1,0.25,0.031622776601683784,1,0.16618912800004182
7,15,Decrease_null,0.25,0.1,0.1,1,0.7293849260004208
7,16,Increase,0.1,0.25,0.02511886431509579,1,0.7305727370003297
7,17,Decrease,0.25,0.1,0.06309573444801932,1,0.54864225700112
7,18,Equal,0.1,0.1,0.07943282347242815,1,0.7266432920005172
7,19,Equal,0.25,0.25,0.1,1,0.4751613650005311
7,20,Decrease,0.25,0.1,0.05011872336272722,1,0.46243056999992405
7,21,Decrease,0.25,0.1,0.03981071705534971,1,0.4174803579990112
7,22,Control,0.0,0.25,0.02511886431509579,1,0.7247389290005231
7,23,Control,0.0,0.25,0.01995262314968879,1,0.689829886001462
7,24,Decrease,0.25,0.1,0.031622776601683784,1,0.6238562660000753
7,25,Control,0.0,0.1,0.1,1,0.7443602919993282
7,26,Increase,0.1,0.25,0.01995262314968879,1,0.23530728399964573
7,27,Decrease,0.25,0.1,0.02511886431509579,1,0.4278738400007569
7,28,Equal,0.25,0.25,0.07943282347242815,1,0.5438543330001266
7,29,Control,0.0,0.1,0.07943282347242815,1,0.42403288000059547
7,30,Equal,0.1,0.1,0.06309573444801932,1,0.923048832000859
7,31,Control,0.0,0.25,0.015848931924611127,1,0.5023921909996716
7,32,Equal,0.1,0.1,0.05011872336272722,1,0.5115524789998744
7,33,Equal,0.25,0.25,0.06309573444801932,1,0.40273872499892605
7,34,Equal,0.25,0.25,0.05011872336272722,1,0.39908112000011897
7,35,Equal,0.25,0.25,0.03981071705534971,1,0.4041313210000226
7,36,Control_null,0.0,0.1,0.1,1,0.9353138639999088
7,37,Control,0.0,0.25,0.012589254117941666,0,0.8365343160003249
7,38,Control,0.0,0.1,0.06309573444801932,1,0.5737321630003862
7,39,Control_null,0.0,0.1,0.07943282347242815,0,0.6647759829993447
7,40,Control,0.0,0.25,0.015848931924611127,1,0.7691020959991874
7,41,Increase,0.1,0.25,0.015848931924611127,1,0.7002509630001441
7,42,Decrease,0.25,0.1,0.01995262314968879,1,0.6293236429992248
7,43,Equal,0.1,0.1,0.03981071705534971,1,0.45593425300103263
7,44,Control,0.0,0.1,0.05011872336272722,1,0.4279001619997871
7,45,Control_null,0.0,0.1,0.1,1,1.1109657599990896
7,46,Control,0.0,0.25,0.012589254117941666,0,0.6890892240007815
7,47,Control,0.0,0.1,0.03981071705534971,1,0.4844012740013568
7,48,Control,0.0,0.25,0.015848931924611127,1,0.6885675840003387
7,49,Equal_null,0.25,0.25,0.1,1,0.5176565510009823
7,50,Equal,0.1,0.1,0.031622776601683784,1,0.4508941349995439
7,51,Equal,0.1,0.1,0.02511886431509579,1,0.4751044049990014
7,52,Control,0.0,0.1,0.031622776601683784,1,0.4380756270002166
7,53,Increase,0.1,0.25,0.012589254117941666,0,0.6314517020000494
7,54,Control,0.0,0.25,0.012589254117941666,1,0.6337564260011277
7,55,Decrease,0.25,0.1,0.015848931924611127,0,0.6748218709999492
7,56,Increase,0.1,0.25,0.015848931924611127,0,0.7500801610003691
7,57,Increase,0.1,0.25,0.01995262314968879,1,0.6081757939991803
7,58,Increase_null,0.1,0.25,0.1,1,0.5794258050009375
7,59,Equal,0.25,0.25,0.031622776601683784,1,0.4785730309995415
7,60,Decrease,0.25,0.1,0.01995262314968879,1,0.4256445299997722
7,61,Decrease,0.25,0.1,0.015848931924611127,1,0.6308622720007406
7,62,Equal,0.1,0.1,0.01995262314968879,1,1.018568501000118
7,63,Equal,0.1,0.1,0.015848931924611127,0,0.46940111399999296
7,64,Equal,0.25,0.25,0.02511886431509579,1,0.5205278459998226
7,65,Control,0.0,0.25,0.009999999999999995,0,0.6676992769989738
7,66,Equal,0.25,0.25,0.01995262314968879,1,0.5397877119994519
7,67,Decrease,0.25,0.1,0.012589254117941666,1,0.7520094880001125
7,68,Equal,0.25,0.25,0.015848931924611127,0,0.6081343019995984
7,69,Equal,0.25,0.25,0.01995262314968879,0,1.027334325000993
7,70,Decrease,0.25,0.1,0.009999999999999995,0,0.7983429220003018
7,71,Decrease,0.25,0.1,0.012589254117941666,0,0.5458794130008755
7,72,Control,0.0,0.25,0.012589254117941666,0,0.4687372129992582
7,73,Decrease,0.25,0.1,0.015848931924611127,0,0.7040773160006211
7,74,Control,0.0,0.25,0.015848931924611127,0,0.9247277369995572
7,75,Equal,0.1,0.1,0.01995262314968879,0,0.666180379999787
7,76,Control,0.0,0.1,0.02511886431509579,1,0.6382136950014683
7,77,Equal,0.1,0.1,0.025118864315095794,1,0.6078010860001086
7,78,Decrease,0.25,0.1,0.01995262314968879,1,0.5071899810009199
7,79,Equal,0.25,0.25,0.025118864315095794,0,0.9233725880003476
7,80,Control,0.0,0.25,0.01995262314968879,1,1.0942300919996342
7,81,Increase_null,0.1,0.25,0.07943282347242815,1,0.5917795440000191
7,82,Control,0.0,0.1,0.01995262314968879,1,0.7229296739988058
7,83,Control,0.0,0.1,0.015848931924611127,0,1.150164026999846
7,84,Decrease,0.25,0.1,0.015848931924611127,0,0.5771203309996054
7,85,Increase,0.1,0.25,0.015848931924611127,0,0.9000038119993405
7,86,Equal,0.25,0.25,0.031622776601683784,1,0.4874850720007089
7,87,Increase,0.1,0.25,0.01995262314968879,1,0.4594653210006072
7,88,Equal,0.25,0.25,0.02511886431509579,1,0.37704611200024374
7,89,Increase,0.1,0.25,0.015848931924611127,1,0.4696453759988799
7,90,Control_null,0.0,0.25,0.1,1,0.716335221000918
7,91,Equal,0.25,0.25,0.01995262314968879,1,0.5514038080000319
7,92,Increase,0.1,0.25,0.012589254117941666,0,0.7358307620015694
7,93,Equal,0.1,0.1,0.01995262314968879,0,0.6508397010002227
7,94,Decrease,0.25,0.1,0.01995262314968879,1,0.4761014369996701
7,95,Increase,0.1,0.25,0.015848931924611127,0,0.671398513000895
7,96,Increase,0.1,0.25,0.01995262314968879,0,0.4744067450010334
7,97,Equal,0.1,0.1,0.025118864315095794,0,99
7,98,Increase,0.1,0.25,0.025118864315095794,1,0.44102926999948977
7,99,Equal,0.25,0.25,0.015848931924611127,0,0.7561494399997173
7,100,Equal,0.25,0.25,0.01995262314968879,0,0.792989822999516
7,101,Equal,0.25,0.25,0.025118864315095794,1,0.4698328499998752
7,102,Decrease,0.25,0.1,0.015848931924611127,0,0.890133393000724
7,103,Increase,0.1,0.25,0.01995262314968879,1,0.5467047540005296
7,104,Control,0.0,0.25,0.015848931924611127,1,0.9648263019989827
7,105,Decrease,0.25,0.1,0.01995262314968879,1,0.509008723000079
7,106,Control,0.0,0.1,0.01995262314968879,1,0.6093769990002329
7,107,Equal,0.1,0.1,0.031622776601683784,1,0.6264594259992009
7,108,Equal,0.25,0.25,0.01995262314968879,1,0.7407027869994636
7,109,Control,0.0,0.25,0.012589254117941666,0,99
7,110,Increase,0.1,0.25,0.015848931924611127,1,0.7882504489989515
7,111,Control,0.0,0.25,0.015848931924611127,0,0.41535187599947676
7,112,Decrease,0.25,0.1,0.015848931924611127,0,0.5622023260002607
7,113,Increase,0.1,0.25,0.012589254117941666,0,0.3992969489991083
7,114,Decrease,0.25,0.1,0.01995262314968879,0,0.3072475829994801
7,115,Control_null,0.0,0.25,0.07943282347242815,1,0.6689640840013453
7,116,Increase,0.1,0.25,0.015848931924611127,0,0.20002474900138623
7,117,Control,0.0,0.25,0.01995262314968879,0,0.5072613350002939
7,118,Decrease,0.25,0.1,0.025118864315095794,0,0.1473701839986461
7,119,Control,0.0,0.25,0.025118864315095794,0,0.17593804399984947
7,120,Increase,0.1,0.25,0.01995262314968879,1,0.7942946100010886
7,121,Control,0.0,0.1,0.015848931924611127,1,0.4776224920005916
7,122,Equal,0.1,0.1,0.02511886431509579,1,0.42464986800041515
7,123,Equal,0.1,0.1,0.01995262314968879,1,0.24606464200041955
7,124,Equal,0.1,0.1,0.015848931924611127,1,0.7899996940013807
7,125,Increase_null,0.1,0.25,0.06309573444801932,1,0.46491992800110893
7,126,Decrease,0.25,0.1,0.031622776601683784,1,0.5694402789995365
7,127,Control,0.0,0.1,0.012589254117941666,0,0.39632332300061535
7,128,Equal,0.25,0.25,0.015848931924611127,0,0.5667409060006321
7,129,Equal,0.1,0.1,0.012589254117941666,0,0.5935386979999748
7,130,Equal,0.1,0.1,0.015848931924611127,1,0.5088987870003621
7,131,Increase,0.1,0.25,0.015848931924611127,1,0.5280862580002577
7,132,Control,0.0,0.25,0.031622776601683784,1,0.4444406619986694
7,133,Decrease,0.25,0.1,0.02511886431509579,1,0.3434315060003428
7,134,Control,0.0,0.1,0.015848931924611127,0,0.603913327000555
7,135,Control,0.0,0.1,0.01995262314968879,0,0.21415053300006548
7,136,Control,0.0,0.1,0.025118864315095794,1,0.4733901759991568
7,137,Control,0.0,0.25,0.02511886431509579,0,0.19327091400009522
7,138,Decrease,0.25,0.1,0.01995262314968879,1,0.7643218590001197
7,139,Equal,0.25,0.25,0.01995262314968879,0,0.028807565999159124
7,140,Increase,0.1,0.25,0.012589254117941666,1,0.9448987510004372
7,141,Control,0.0,0.1,0.01995262314968879,1,0.6830991799997719
7,142,Control_null,0.0,0.1,0.07943282347242815,0,0.4543970739996439
7,143,Equal,0.25,0.25,0.025118864315095794,0,99
7,144,Control,0.0,0.1,0.015848931924611127,1,0.6768835780003428
7,145,Equal,0.1,0.1,0.012589254117941666,1,0.3608212740000454
7,146,Decrease_null,0.25,0.1,0.07943282347242815,1,0.6362083340009121
7,147,Increase,0.1,0.25,0.009999999999999995,0,0.25629557100000966
7,148,Decrease,0.25,0.1,0.015848931924611127,0,0.07453693100069358
7,149,Equal,0.1,0.1,0.009999999999999995,0,0.3236349950002477
7,150,Increase,0.1,0.25,0.012589254117941666,0,0.07572029400034808
7,151,Decrease,0.25,0.1,0.01995262314968879,0,0.39853078800115327
7,152,Increase,0.1,0.25,0.015848931924611127,0,0.1762687160007772
7,153,Control,0.0,0.25,0.031622776601683784,0,0.003429689999393304
7,154,Decrease,0.25,0.1,0.025118864315095794,0,99
7,155,Control,0.0,0.1,0.012589254117941666,0,99
7,156,Control,0.0,0.1,0.015848931924611127,0,99
7,157,Control,0.0,0.25,0.03981071705534971,0,0.031093818999579526
7,158,Control,0.0,0.25,0.05011872336272721,0,0.034355413999946904
7,159,Equal,0.25,0.25,0.031622776601683784,0,99
7,160,Equal,0.1,0.1,0.012589254117941666,0,0.23487349100105348
7,161,Equal,0.1,0.1,0.015848931924611127,0,99
7,162,Increase,0.1,0.25,0.01995262314968879,0,99
7,163,Control,0.0,0.1,0.01995262314968879,0,99
7,164,Equal,0.1,0.1,0.01995262314968879,0,0.3561743890004436
7,165,Equal,0.25,0.25,0.03981071705534971,1,0.24451140699966345
7,166,Equal,0.25,0.25,0.031622776601683784,0,0.239423025999713
7,167,Decrease,0.25,0.1,0.031622776601683784,1,0.2910232369995356
7,168,Control,0.0,0.25,0.0630957344480193,0,0.25420557700090285
7,169,Control,0.0,0.1,0.025118864315095794,0,99
7,170,Decrease,0.25,0.1,0.02511886431509579,1,0.5163255460010987
7,171,Control,0.0,0.1,0.031622776601683784,1,0.05665564100127085
7,172,Control,0.0,0.25,0.07943282347242812,1,0.07656159799989837
7,173,Control,0.0,0.25,0.0630957344480193,1,0.16041415600011533
7,174,Equal,0.25,0.25,0.03981071705534971,1,0.36338810800043575
7,175,Control,0.0,0.1,0.02511886431509579,0,99
7,176,Control,0.0,0.25,0.050118723362727206,1,0.03963724200002616
7,177,Increase,0.1,0.25,0.025118864315095794,0,99
7,178,Equal,0.25,0.25,0.031622776601683784,1,0.1307713109999895
7,179,Equal,0.25,0.25,0.02511886431509579,0,99
7,180,Equal,0.25,0.25,0.031622776601683784,0,0.1439369159998023
7,181,Control,0.0,0.25,0.039810717055349706,1,0.09930427300059819
7,182,Equal,0.1,0.1,0.025118864315095794,0,99
7,183,Control,0.0,0.1,0.031622776601683784,0,99
7,184,Control,0.0,0.25,0.03162277660168378,1,0.09570043500025349
7,185,Increase,0.1,0.25,0.031622776601683784,0,0.5716886249992967
7,186,Equal,0.25,0.25,0.03981071705534971,1,0.20696344699899782
7,187,Increase_null,0.1,0.25,0.05011872336272722,1,0.44185747600022296
7,188,Control,0.0,0.25,0.025118864315095787,1,0.22140524899987213
7,189,Decrease,0.25,0.1,0.01995262314968879,1,0.4141031919989473
7,190,Control,0.0,0.1,0.03981071705534971,0,0.3292473859983147
7,191,Control,0.0,0.1,0.05011872336272721,1,0.537057981999169
7,192,Control,0.0,0.25,0.019952623149688785,0,0.2363039169995318
7,193,Control,0.0,0.25,0.025118864315095787,1,0.2877742910004599
7,194,Control,0.0,0.25,0.019952623149688785,0,0.24297318600110884
7,195,Equal,0.25,0.25,0.031622776601683784,0,99
7,196,Equal,0.1,0.1,0.031622776601683784,1,0.5055373420000251
7,197,Increase,0.1,0.25,0.03981071705534971,1,0.3261738119999791
7,198,Decrease,0.25,0.1,0.015848931924611127,1,0.2660467090008751
7,199,Decrease,0.25,0.1,0.012589254117941666,0,0.876415332999386
7,200,Decrease,0.25,0.1,0.015848931924611127,0,99
7,201,Equal_null,0.1,0.1,0.1,0,0.02737278399945353
7,202,Equal,0.25,0.25,0.03981071705534971,0,0.09915571599958639
7,203,Equal,0.1,0.1,0.02511886431509579,0,0.0465160570001899
7,204,Control,0.0,0.1,0.03981071705534971,0,0.1028790049986128
7,205,Control,0.0,0.25,0.025118864315095787,0,0.5221118789995671
7,206,Decrease_null,0.25,0.1,0.06309573444801932,0,99
7,207,Control,0.0,0.1,0.05011872336272721,0,0.37448145099915564
7,208,Equal,0.25,0.25,0.05011872336272721,0,0.12948578299983637
7,209,Control_null,0.0,0.25,0.06309573444801932,1,0.3817517700008466
7,210,Equal,0.25,0.25,0.0630957344480193,0,99
7,211,Equal,0.1,0.1,0.031622776601683784,0,0.021971607999148546
7,212,Control,0.0,0.25,0.03162277660168378,0,0.05879200699928333
7,213,Equal,0.1,0.1,0.03981071705534971,0,99
7,214,Increase_null,0.1,0.25,0.03981071705534971,0,99
7,215,Equal,0.1,0.1,0.05011872336272721,0,0.16786565300026268
7,216,Control,0.0,0.25,0.039810717055349706,0,0.09094773600008921
7,217,Control,0.0,0.1,0.0630957344480193,0,0.508509334998962
7,218,Equal,0.25,0.25,0.07943282347242812,0,99
7,219,Increase,0.1,0.25,0.031622776601683784,0,0.07460973399975046
7,220,Equal_null,0.1,0.1,0.1,0,0.37376462599968363
7,221,Decrease,0.25,0.1,0.01995262314968879,1,0.296766753999691
7,222,Equal,0.25,0.25,0.09999999999999998,0,0.31626019299983454
7,223,Control,0.0,0.1,0.07943282347242812,1,0.4258968789999926
7,224,Increase,0.1,0.25,0.03981071705534971,1,0.30230161000145017
7,225,Control,0.0,0.25,0.050118723362727206,1,0.29134763100046257
7,226,Increase,0.1,0.25,0.031622776601683784,1,0.21162859000105527
7,227,Control,0.0,0.25,0.039810717055349706,1,0.22332136099976196
7,228,Increase,0.1,0.25,0.02511886431509579,1,0.16818418399998336
7,229,Control,0.0,0.1,0.0630957344480193,1,0.04369688900078472
7,230,Increase,0.1,0.25,0.01995262314968879,1,0.05997029200079851
7,231,Equal,0.1,0.1,0.0630957344480193,1,0.31087983199904556
7,232,Equal,0.1,0.1,0.050118723362727206,1,0.41798097099854203
7,233,Decrease,0.25,0.1,0.015848931924611127,1,0.222170268998525
7,234,Equal,0.25,0.25,0.1,1,0.28941606800071895
7,235,Increase,0.1,0.25,0.015848931924611127,1,0.5484643689997029
7,236,Equal,0.1,0.1,0.039810717055349706,1,0.48802515200077323
7,237,Control,0.0,0.25,0.03162277660168378,1,0.3495580250000785
7,238,Increase,0.1,0.25,0.012589254117941666,1,0.38312423700153886
7,239,Equal,0.25,0.25,0.07943282347242815,1,0.30635968599926855
7,240,Equal,0.1,0.1,0.03162277660168378,1,0.359755822999432
7,241,Equal,0.25,0.25,0.06309573444801932,1,0.3000593380002101
7,242,Decrease,0.25,0.1,0.012589254117941666,0,0.5896950280002784
7,243,Control,0.0,0.1,0.050118723362727206,1,0.392883886999698
7,244,Equal,0.1,0.1,0.025118864315095787,1,0.3642321129991615
7,245,Increase,0.1,0.25,0.009999999999999995,1,0.6404375920010352
7,246,Equal,0.1,0.1,0.019952623149688785,1,0.4503679490007926
7,247,Decrease,0.25,0.1,0.015848931924611127,0,0.7269312820008054
7,248,Equal,0.25,0.25,0.05011872336272722,1,0.42500612500043644
7,249,Decrease,0.25,0.1,0.01995262314968879,1,0.3570231470002909
7,250,Control,0.0,0.25,0.025118864315095787,1,0.42447529200035206
7,251,Equal,0.1,0.1,0.015848931924611124,1,0.8324078229998122
7,252,Equal,0.25,0.25,0.03981071705534971,1,0.35581670100145857
7,253,Control,0.0,0.1,0.039810717055349706,1,0.30913391600006435
7,254,Decrease_null,0.25,0.1,0.07943282347242814,1,0.45614872700025444
7,255,Decrease,0.25,0.1,0.015848931924611127,0,0.5231722080006875
7,256,Increase,0.1,0.25,0.00794328234724281,0,0.4865671139996266
7,257,Equal,0.1,0.1,0.012589254117941663,0,0.6577122300004703
7,258,Decrease,0.25,0.1,0.01995262314968879,0,0.42857141599961324
7,259,Equal,0.1,0.1,0.015848931924611124,0,0.48166333100016345
7,260,Increase,0.1,0.25,0.009999999999999995,0,99
7,261,Equal,0.1,0.1,0.019952623149688785,0,0.6394892780008377
7,262,Equal,0.25,0.25,0.031622776601683784,1,0.48264590299913834
7,263,Control,0.0,0.25,0.019952623149688785,1,0.3256965119999222
7,264,Increase,0.1,0.25,0.012589254117941666,0,0.709674461000759
7,265,Control_null,0.0,0.1,0.1,1,0.4891765079992183
7,266,Decrease,0.25,0.1,0.025118864315095794,0,0.41028987000026973
7,267,Decrease,0.25,0.1,0.031622776601683784,1,0.41334903499955544
7,268,Increase,0.1,0.25,0.015848931924611127,0,0.9218532770009915
7,269,Equal,0.1,0.1,0.025118864315095787,1,0.09282001700012188
7,270,Equal,0.1,0.1,0.019952623149688785,1,0.3215819830002147
7,271,Decrease,0.25,0.1,0.02511886431509579,1,0.3723683540010825
7,272,Equal,0.25,0.25,0.02511886431509579,1,0.3342782559993793
7,273,Equal,0.1,0.1,0.015848931924611124,1,0.3467018859992095
7,274,Equal,0.1,0.1,0.012589254117941663,1,0.7193170020000252
7,275,Equal,0.25,0.25,0.01995262314968879,0,0.31113564599945676
7,276,Equal,0.25,0.25,0.025118864315095794,1,0.6583703819997027
7,277,Equal,0.1,0.1,0.009999999999999992,0,1.0264133639993815
7,278,Equal,0.1,0.1,0.012589254117941663,0,0.685364455999661
7,279,Control,0.0,0.25,0.015848931924611124,0,0.3678812369998923
7,280,Control,0.0,0.1,0.03162277660168378,1,0.7232576840015099
7,281,Equal,0.1,0.1,0.015848931924611124,1,0.702229738000824
7,282,Equal,0.25,0.25,0.01995262314968879,1,0.2573011120002775
7,283,Equal,0.25,0.25,0.015848931924611127,1,0.3976108700007899
7,284,Equal_null,0.1,0.1,0.1,1,0.5544699960009893
7,285,Control,0.0,0.25,0.019952623149688785,1,0.4926540260003094
7,286,Decrease,0.25,0.1,0.01995262314968879,0,0.3772236780005187
7,287,Increase,0.1,0.25,0.01995262314968879,0,0.585276301999329
7,288,Decrease,0.25,0.1,0.025118864315095794,1,0.23650170899963996
7,289,Equal,0.1,0.1,0.012589254117941663,1,0.35967805499967653
7,290,Control,0.0,0.1,0.025118864315095787,1,0.6249999659994501
7,291,Control,0.0,0.25,0.015848931924611124,1,0.5150514689994452
7,292,Equal,0.1,0.1,0.009999999999999992,0,0.6211345669998991
7,293,Control,0.0,0.1,0.019952623149688785,1,0.7040034599995124
7,294,Increase,0.1,0.25,0.025118864315095794,1,0.4194032240011438
7,295,Control,0.0,0.25,0.012589254117941663,0,0.43173332900005335
7,296,Control,0.0,0.25,0.015848931924611124,0,1.2679519989997061
7,297,Increase,0.1,0.25,0.01995262314968879,1,0.48921920499924454
7,298,Control,0.0,0.1,0.015848931924611124,1,0.9465725070003828
7,299,Increase,0.1,0.25,0.015848931924611127,0,0.7091488000005484
7,300,Decrease,0.25,0.1,0.01995262314968879,0,0.3908461420014646
7,301,Equal,0.1,0.1,0.012589254117941663,0,0.5379190860003291
7,302,Decrease,0.25,0.1,0.025118864315095794,0,0.30905252100092184
7,303,Decrease,0.25,0.1,0.031622776601683784,1,0.37314247299946146
7,304,Control,0.0,0.25,0.019952623149688785,0,0.6962324940013787
7,305,Decrease,0.25,0.1,0.02511886431509579,0,0.6516434530003608
7,306,Decrease,0.25,0.1,0.031622776601683784,1,0.36679358900073566
7,307,Decrease,0.25,0.1,0.02511886431509579,1,0.4662268280007993
7,308,Equal,0.25,0.25,0.012589254117941666,0,0.516948204000073
7,309,Control,0.0,0.25,0.025118864315095787,1,0.5312588029992185
7,310,Control,0.0,0.25,0.019952623149688785,1,0.5025544330001139
7,311,Equal,0.25,0.25,0.015848931924611127,0,0.3926280499999848
7,312,Equal,0.1,0.1,0.015848931924611124,0,0.6043321560009645
7,313,Equal,0.25,0.25,0.01995262314968879,1,0.7330611479992513
7,314,Equal,0.1,0.1,0.019952623149688785,1,0.6972828810012288
7,315,Increase,0.1,0.25,0.01995262314968879,0,0.43636529099967447
7,316,Decrease,0.25,0.1,0.01995262314968879,1,0.43693752299986954
7,317,Control_null,0.0,0.25,0.05011872336272722,1,0.4717513929990673
7,318,Control,0.0,0.1,0.012589254117941663,0,0.9071394769998733
7,319,Increase_null,0.1,0.25,0.05011872336272721,1,0.40615929900013725
7,320,Decrease_null,0.25,0.1,0.06309573444801932,1,0.45743339200089395
7,321,Equal,0.1,0.1,0.015848931924611124,0,0.5167659839989938
7,322,Control,0.0,0.25,0.015848931924611124,0,0.5142906720011524
7,323,Equal,0.1,0.1,0.019952623149688785,0,1.0061276229989744
7,324,Increase,0.1,0.25,0.025118864315095794,1,0.40590141600114293
7,325,Control,0.0,0.1,0.015848931924611124,0,0.47334679099913046
7,326,Control,0.0,0.25,0.019952623149688785,0,0.3533837640006823
7,327,Equal,0.25,0.25,0.015848931924611127,0,99
7,328,Decrease,0.25,0.1,0.015848931924611127,0,99
7,329,Control,0.0,0.25,0.025118864315095787,0,0.20921419099977356
7,330,Control,0.0,0.25,0.03162277660168378,0,0.6044330690001516
7,331,Control,0.0,0.1,0.019952623149688785,0,99
7,332,Control,0.0,0.1,0.025118864315095787,0,0.0502767150010186
7,333,Control,0.0,0.1,0.03162277660168378,0,99
7,334,Increase,0.1,0.25,0.01995262314968879,0,99
7,335,Control,0.0,0.25,0.039810717055349706,1,0.6386393989996577
7,336,Control,0.0,0.25,0.03162277660168378,1,0.7468285470004048
7,337,Equal,0.25,0.25,0.01995262314968879,0,0.8045763430000079
7,338,Increase,0.1,0.25,0.025118864315095794,0,0.4479303839998465
7,339,Control,0.0,0.25,0.025118864315095787,0,0.6399592179986939
7,340,Control,0.0,0.1,0.039810717055349706,0,0.4032533810004679
7,341,Equal,0.25,0.25,0.025118864315095794,0,0.2781871590013907
7,342,Increase,0.1,0.25,0.031622776601683784,0,99
7,343,Equal,0.1,0.1,0.025118864315095787,0,99
7,344,Equal,0.25,0.25,0.031622776601683784,1,0.508725843999855
7,345,Equal,0.25,0.25,0.02511886431509579,1,0.13610984600018128
7,346,Equal,0.1,0.1,0.03162277660168378,0,99
7,347,Equal,0.25,0.25,0.01995262314968879,1,0.14341350100039563
7,348,Increase,0.1,0.25,0.03981071705534971,0,99
7,349,Decrease,0.25,0.1,0.01995262314968879,0,99
7,350,Control,0.0,0.25,0.03162277660168378,0,99
7,351,Equal,0.1,0.1,0.039810717055349706,1,0.3573131379998813
7,352,Control,0.0,0.25,0.039810717055349706,1,0.4705751190012961
7,353,Increase,0.1,0.25,0.05011872336272721,1,0.20963142700020398
7,354,Control,0.0,0.1,0.050118723362727206,1,0.2606567550010368
7,355,Equal,0.1,0.1,0.03162277660168378,0,99
7,356,Control,0.0,0.1,0.039810717055349706,1,0.3930614279997826
7,357,Equal,0.25,0.25,0.015848931924611127,1,0.5564739170004032
7,358,Equal,0.1,0.1,0.039810717055349706,0,0.23975258500104246
7,359,Control,0.0,0.25,0.03162277660168378,0,99
7,360,Equal,0.1,0.1,0.050118723362727206,1,0.38307309999981953
7,361,Increase,0.1,0.25,0.03981071705534971,1,0.16240498799925263
7,362,Increase_null,0.1,0.25,0.03981071705534971,1,0.4535396730007051
7,363,Decrease,0.25,0.1,0.025118864315095794,1,0.44183429700024135
7,364,Equal,0.1,0.1,0.039810717055349706,1,0.44436135799878684
7,365,Control,0.0,0.1,0.03162277660168378,1,0.4668508730010217
7,366,Equal,0.25,0.25,0.012589254117941666,1,0.37939301499864087
7,367,Increase,0.1,0.25,0.031622776601683784,1,0.438536114001181
7,368,Increase,0.1,0.25,0.02511886431509579,1,0.5265625229985744
7,369,Increase,0.1,0.25,0.01995262314968879,0,0.7054365530002542
7,370,Control,0.0,0.25,0.039810717055349706,1,0.34084406700094405
7,371,Control,0.0,0.25,0.03162277660168378,1,0.3017255300001125
7,372,Control,0.0,0.25,0.025118864315095787,1,0.44927579300019715
7,373,Control,0.0,0.1,0.025118864315095787,1,0.36553662799997255
7,374,Equal,0.25,0.25,0.009999999999999995,0,0.7606848839986924
7,375,Control,0.0,0.1,0.019952623149688785,0,0.4920086509991961
7,376,Equal,0.25,0.25,0.012589254117941666,0,0.3832923110003321
7,377,Control_null,0.0,0.25,0.03981071705534971,1,0.5164375550011755
7,378,Decrease,0.25,0.1,0.01995262314968879,1,0.35152222299984714
7,379,Control_null,0.0,0.1,0.07943282347242815,1,0.28057573800106184
7,380,Control,0.0,0.25,0.019952623149688785,1,0.4197795979998773
7,381,Equal,0.1,0.1,0.03162277660168378,1,0.4999612999999954
7,382,Control,0.0,0.25,0.015848931924611124,0,0.5740523989989015
7,383,Increase,0.1,0.25,0.025118864315095794,1,0.38546959000086645
7,384,Control,0.0,0.25,0.019952623149688785,0,0.5635072620007122
7,385,Control,0.0,0.25,0.025118864315095787,1,0.5829779939995205
7,386,Control,0.0,0.1,0.025118864315095787,1,0.46602072799942107
7,387,Equal,0.25,0.25,0.015848931924611127,1,0.3251866929986136
7,388,Decrease,0.25,0.1,0.015848931924611127,1,0.23237781699936022
7,389,Decrease,0.25,0.1,0.012589254117941666,0,99
7,390,Increase,0.1,0.25,0.01995262314968879,0,0.7028884599985759
7,391,Equal,0.1,0.1,0.025118864315095787,0,0.3887947700004588
7,392,Control,0.0,0.1,0.019952623149688785,1,0.6520535370000289
7,393,Equal,0.25,0.25,0.012589254117941666,0,0.36732532899986836
7,394,Equal,0.25,0.25,0.015848931924611127,0,0.712751187998947
7,395,Decrease,0.25,0.1,0.015848931924611127,0,0.7637783720001607
7,396,Equal,0.1,0.1,0.03162277660168378,1,0.3589307969996298
7,397,Equal,0.1,0.1,0.025118864315095787,1,0.3049243950008531
7,398,Control_null,0.0,0.25,0.031622776601683784,1,0.5722986860000674
7,399,Equal,0.25,0.25,0.01995262314968879,1,0.4313647849994595
7,400,Control,0.0,0.25,0.019952623149688785,0,0.5947602830001415
7,401,Decrease,0.25,0.1,0.01995262314968879,0,1.1283097420000558
7,402,Control,0.0,0.1,0.015848931924611124,0,0.6031998359994759
7,403,Control_null,0.0,0.25,0.02511886431509579,1,0.36575011999957496
7,404,Control,0.0,0.25,0.025118864315095787,0,0.5618085739988601
7,405,Increase,0.1,0.25,0.025118864315095794,1,0.7213471240011131
7,406,Equal,0.1,0.1,0.019952623149688785,1,0.3723805710014858
7,407,Control,0.0,0.25,0.03162277660168378,1,0.3409870220002631
7,408,Decrease,0.25,0.1,0.025118864315095794,1,0.20815214899994317
7,409,Increase,0.1,0.25,0.01995262314968879,1,0.36188549700091244
7,410,Control,0.0,0.25,0.025118864315095787,1,0.382609329000843
7,411,Equal,0.25,0.25,0.015848931924611127,1,0.20949958199889807
7,412,Decrease,0.25,0.1,0.01995262314968879,0,99
7,413,Control_null,0.0,0.1,0.06309573444801932,0,0.11216716399940196
7,414,Equal,0.25,0.25,0.012589254117941666,0,99
7,415,Equal,0.25,0.25,0.015848931924611127,0,0.4873344569987239
7,416,Control,0.0,0.25,0.019952623149688785,0,0.16161400000055437
7,417,Decrease,0.25,0.1,0.025118864315095794,0,0.46192227299980004
7,418,Decrease,0.25,0.1,0.031622776601683784,0,0.5821932220005692
7,419,Control,0.0,0.1,0.019952623149688785,0,0.2561586249994434
7,420,Increase_null,0.1,0.25,0.031622776601683784,1,0.35339044600004854
7,421,Equal,0.25,0.25,0.01995262314968879,0,0.5646298060000845
7,422,Increase_null,0.1,0.25,0.02511886431509579,1,0.3588533079982881
7,423,Increase,0.1,0.25,0.015848931924611127,0,0.17797291100032453
7,424,Equal,0.25,0.25,0.025118864315095794,0,0.05305098000098951
7,425,Decrease,0.25,0.1,0.03981071705534971,0,0.6882487399998354
7,426,Control,0.0,0.1,0.025118864315095787,0,99
7,427,Control,0.0,0.25,0.025118864315095787,0,0.12023621499974979
7,428,Increase,0.1,0.25,0.01995262314968879,0,0.08569604799959052
7,429,Equal,0.1,0.1,0.015848931924611124,0,0.13514535600006639
7,430,Control,0.0,0.1,0.03162277660168378,0,0.018380262999926344
7,431,Equal,0.1,0.1,0.019952623149688785,0,0.13143798300006893
7,432,Equal,0.25,0.25,0.031622776601683784,1,0.31861972299884656
7,433,Equal,0.25,0.25,0.02511886431509579,1,0.4789504960008344
7,434,Decrease,0.25,0.1,0.05011872336272721,1,0.20193148399994243
7,435,Decrease,0.25,0.1,0.03981071705534971,1,0.3159087969997927
7,436,Equal,0.25,0.25,0.01995262314968879,1,0.3843480510004156
7,437,Control,0.0,0.25,0.03162277660168378,1,0.33959332300037204
7,438,Decrease_null,0.25,0.1,0.05011872336272722,1,0.2947672570007853
7,439,Increase,0.1,0.25,0.025118864315095794,1,0.6261617559994193
7,440,Equal,0.1,0.1,0.025118864315095787,1,0.5581404300010036
7,441,Control,0.0,0.1,0.039810717055349706,1,0.3708899819994258
7,442,Control,0.0,0.25,0.025118864315095787,1,0.2833604329989612
7,443,Control,0.0,0.25,0.019952623149688785,0,0.43060166599934746
7,444,Equal,0.25,0.25,0.015848931924611127,0,0.5350552889995015
7,445,Decrease,0.25,0.1,0.031622776601683784,0,0.5859528540004248
7,446,Control,0.0,0.25,0.025118864315095787,1,0.5302048420016945
7,447,Decrease,0.25,0.1,0.03981071705534971,0,0.9424632529990049
7,448,Equal,0.1,0.1,0.019952623149688785,0,99
7,449,Increase,0.1,0.25,0.01995262314968879,1,0.4037118950000149
7,450,Decrease,0.25,0.1,0.05011872336272721,1,0.19062419699912425
7,451,Control,0.0,0.25,0.019952623149688785,1,0.35500999800024147
7,452,Increase,0.1,0.25,0.015848931924611127,1,0.39836402400032966
7,453,Equal,0.1,0.1,0.025118864315095787,1,0.20289483099986683
7,454,Increase,0.1,0.25,0.012589254117941666,1,0.10276836499906494
7,455,Control,0.0,0.1,0.03162277660168378,0,99
7,456,Decrease,0.25,0.1,0.03981071705534971,0,0.30713189499874716
7,457,Equal,0.1,0.1,0.019952623149688785,0,0.3162983259990142
7,458,Control,0.0,0.25,0.015848931924611124,0,0.3754357580000942
7,459,Control,0.0,0.1,0.039810717055349706,0,99
7,460,Equal,0.1,0.1,0.025118864315095787,0,99
7,461,Increase,0.1,0.25,0.009999999999999995,0,0.9819088259991986
7,462,Increase,0.1,0.25,0.012589254117941666,1,0.3291349840001203
7,463,Equal,0.25,0.25,0.01995262314968879,0,0.5481264019999799
7,464,Control,0.0,0.1,0.050118723362727206,0,0.12759845099935774
7,465,Equal,0.1,0.1,0.03162277660168378,1,0.15583337700081756
7,466,Control,0.0,0.25,0.019952623149688785,1,0.21687029799977608
7,467,Control,0.0,0.25,0.015848931924611124,0,0.3897390269994503
7,468,Equal,0.1,0.1,0.025118864315095787,0,0.20635756099909486
7,469,Control,0.0,0.25,0.019952623149688785,0,0.20933162700021057
7,470,Equal_null,0.1,0.1,0.07943282347242815,1,0.8586731529994722
7,471,Equal,0.25,0.25,0.025118864315095794,0,0.6859162729997479
7,472,Control,0.0,0.25,0.025118864315095787,0,99
7,473,Equal,0.1,0.1,0.03162277660168378,1,0.4495545600002515
7,474,Increase,0.1,0.25,0.009999999999999995,0,99
7,475,Decrease,0.25,0.1,0.05011872336272721,0,0.2713371760000882
7,476,Decrease,0.25,0.1,0.0630957344480193,1,0.2519455130004644
7,477,Equal,0.1,0.1,0.025118864315095787,0,99
7,478,Equal,0.1,0.1,0.03162277660168378,0,99
7,479,Equal,0.1,0.1,0.039810717055349706,1,0.1988380960010545
7,480,Control,0.0,0.1,0.0630957344480193,1,0.41915932200026873
7,481,Control,0.0,0.1,0.050118723362727206,1,0.4152393699987442
7,482,Increase,0.1,0.25,0.012589254117941666,0,0.5403644159996475
7,483,Control,0.0,0.1,0.039810717055349706,1,0.15747287900012452
7,484,Equal,0.1,0.1,0.03162277660168378,1,0.424774458999309
7,485,Control,0.0,0.25,0.03162277660168378,1,0.43277586000112933
7,486,Equal,0.1,0.1,0.025118864315095787,1,0.27610806899974705
7,487,Decrease,0.25,0.1,0.050118723362727206,1,0.14935631499974988
7,488,Increase_null,0.1,0.25,0.01995262314968879,1,0.45647541700054717
7,489,Decrease,0.25,0.1,0.039810717055349706,1,0.8117458659999102
7,490,Increase,0.1,0.25,0.015848931924611127,0,0.5748430900002859
7,491,Increase,0.1,0.25,0.01995262314968879,1,0.49808326400125225
7,492,Equal,0.1,0.1,0.019952623149688785,1,0.7973219739997148
7,493,Increase,0.1,0.25,0.015848931924611127,0,0.6082935110007384
7,494,Control,0.0,0.1,0.03162277660168378,1,0.23740893399917695
7,495,Decrease,0.25,0.1,0.03162277660168378,1,0.30608780099828437
7,496,Increase,0.1,0.25,0.01995262314968879,1,0.5460357640004077
7,497,Equal,0.1,0.1,0.015848931924611124,0,0.405167197000992
7,498,Control,0.0,0.1,0.025118864315095787,1,0.4943136059991957
7,499,Control,0.0,0.25,0.025118864315095787,1,0.3763850849991286
7,500,Increase,0.1,0.25,0.015848931924611127,0,0.3137596480009961
7,501,Decrease,0.25,0.1,0.025118864315095787,0,0.1888720880015171
7,502,Increase,0.1,0.25,0.01995262314968879,0,0.3680649230009294
7,503,Decrease,0.25,0.1,0.03162277660168378,1,0.5302864679997583
7,504,Equal,0.25,0.25,0.031622776601683784,1,0.30255778600076155
7,505,Control,0.0,0.25,0.019952623149688785,1,0.32956190000004426
7,506,Control,0.0,0.1,0.019952623149688785,1,0.17287653399944247
7,507,Increase,0.1,0.25,0.025118864315095794,1,0.2560230369999772
7,508,Equal,0.25,0.25,0.02511886431509579,1,0.2226474330000201
7,509,Control,0.0,0.25,0.015848931924611124,1,0.33411078000062844
7,510,Decrease,0.25,0.1,0.025118864315095787,1,0.26535967699965113
7,511,Equal,0.25,0.25,0.01995262314968879,1,0.22672401899944816
7,512,Decrease,0.25,0.1,0.019952623149688785,1,0.2538656600008835
7,513,Decrease,0.25,0.1,0.015848931924611124,1,0.43089486199824023
7,514,Decrease,0.25,0.1,0.012589254117941663,0,0.49021126899970113
7,515,Decrease_null,0.25,0.1,0.03981071705534971,1,0.413599281999268
7,516,Equal,0.25,0.25,0.015848931924611127,0,0.1695590010003798
7,517,Equal,0.25,0.25,0.01995262314968879,0,0.0687268719993881
7,518,Decrease,0.25,0.1,0.015848931924611124,0,0.19210330200075987
7,519,Equal,0.25,0.25,0.025118864315095794,0,0.08325856200099224
7,520,Control,0.0,0.25,0.012589254117941663,0,0.01469114300016372
7,521,Control_null,0.0,0.1,0.07943282347242814,1,0.23583405199860863
7,522,Increase,0.1,0.25,0.01995262314968879,0,99
7,523,Equal,0.25,0.25,0.031622776601683784,0,99
7,524,Decrease,0.25,0.1,0.019952623149688785,0,0.15117245799956436
7,525,Control,0.0,0.25,0.015848931924611124,0,99
7,526,Equal,0.25,0.25,0.03981071705534971,0,0.1484381089994713
7,527,Decrease,0.25,0.1,0.025118864315095787,0,0.17554963500151644
7,528,Equal_null,0.1,0.1,0.06309573444801932,0,0.13088650699864957
7,529,Equal,0.25,0.25,0.05011872336272721,1,0.7512407190006343
7,530,Equal,0.25,0.25,0.03981071705534971,1,0.36222129099951417
7,531,Control,0.0,0.25,0.019952623149688785,1,0.27763295700060553
7,532,Equal,0.25,0.25,0.031622776601683784,1,0.3216254619983374
7,533,Equal,0.25,0.25,0.02511886431509579,1,0.17197187900092104
7,534,Equal,0.1,0.1,0.019952623149688785,1,0.2960419780010852
7,535,Decrease,0.25,0.1,0.03162277660168378,1,0.1762730909995298
7,536,Control,0.0,0.25,0.015848931924611124,1,0.28335757599961653
7,537,Equal,0.1,0.1,0.015848931924611124,1,0.21941032399990945
7,538,Decrease,0.25,0.1,0.025118864315095787,1,0.23184767799830297
7,539,Increase,0.1,0.25,0.025118864315095794,0,0.6170577040011267
7,540,Equal,0.25,0.25,0.01995262314968879,0,0.49107760900005815
7,541,Increase,0.1,0.25,0.031622776601683784,1,0.2540393010003754
7,542,Increase,0.1,0.25,0.02511886431509579,1,0.35332349899908877
7,543,Decrease,0.25,0.1,0.019952623149688785,0,0.597789223998916
7,544,Decrease,0.25,0.1,0.025118864315095787,1,0.7076910159994441
7,545,Control_null,0.0,0.25,0.01995262314968879,1,0.4154279080012202
7,546,Control_null,0.0,0.25,0.015848931924611127,1,0.5121343170012551
7,547,Increase_null,0.1,0.25,0.015848931924611127,1,0.5965292839991889
7,548,Equal,0.1,0.1,0.012589254117941663,0,0.33256368699949235
7,549,Control_null,0.0,0.25,0.012589254117941666,1,0.07982952300153556
7,550,Control,0.0,0.25,0.012589254117941663,0,0.14365959499991732
7,551,Increase,0.1,0.25,0.01995262314968879,0,0.660250555998573
7,552,Equal_null,0.25,0.25,0.07943282347242815,1,0.4864492300002894
7,553,Control,0.0,0.25,0.015848931924611124,1,0.5845118380002532
7,554,Control,0.0,0.25,0.012589254117941663,0,0.3797339560005639
7,555,Control,0.0,0.25,0.015848931924611124,0,0.6788003120000212
7,556,Control,0.0,0.25,0.019952623149688785,0,0.3380936789999396
7,557,Control,0.0,0.1,0.015848931924611124,0,0.35738203700020676
7,558,Decrease,0.25,0.1,0.019952623149688785,1,0.6437390510000114
7,559,Equal,0.25,0.25,0.025118864315095794,1,0.4593694870000036
7,560,Control,0.0,0.25,0.025118864315095787,1,0.43886021500111383
7,561,Decrease,0.25,0.1,0.015848931924611124,1,0.4000082160000602
7,562,Equal,0.25,0.25,0.01995262314968879,1,0.45934056199985207
7,563,Increase,0.1,0.25,0.025118864315095794,1,0.539478833999965
7,564,Equal,0.25,0.25,0.015848931924611127,0,0.7187353869994695
7,565,Control,0.0,0.1,0.019952623149688785,0,0.3848588409982767
7,566,Control_null,0.0,0.1,0.06309573444801932,1,0.5972312619996956
7,567,Control_null,0.0,0.25,0.009999999999999995,1,0.3280133099997329
7,568,Equal,0.25,0.25,0.01995262314968879,0,0.5233528440003283
7,569,Equal,0.1,0.1,0.015848931924611124,0,0.4786291840009653
7,570,Control,0.0,0.25,0.019952623149688785,0,0.9949788740013901
7,571,Control,0.0,0.25,0.025118864315095787,0,0.9848773920002714
7,572,Control,0.0,0.1,0.025118864315095787,0,0.7051731230003497
7,573,Increase,0.1,0.25,0.01995262314968879,0,0.25230857899987313
7,574,Control,0.0,0.25,0.03162277660168378,0,0.652648257000692
7,575,Increase,0.1,0.25,0.025118864315095794,1,0.2795865469997807
7,576,Decrease_null,0.25,0.1,0.031622776601683784,1,0.44898889499927463
7,577,Equal,0.25,0.25,0.025118864315095794,1,0.4441993270011153
7,578,Control,0.0,0.1,0.03162277660168378,1,0.36649286300053063
7,579,Control,0.0,0.1,0.025118864315095787,1,0.5704085779998422
7,580,Decrease_null,0.25,0.1,0.02511886431509579,1,0.5734529119999934
7,581,Equal_null,0.25,0.25,0.06309573444801932,1,0.6008136479995301
7,582,Increase,0.1,0.25,0.01995262314968879,0,0.5320347859997128
7,583,Equal,0.1,0.1,0.019952623149688785,0,0.6809991800000716
7,584,Equal,0.1,0.1,0.025118864315095787,1,0.39763987100013765
7,585,Equal,0.1,0.1,0.019952623149688785,1,0.3996737990000838
7,586,Control,0.0,0.25,0.039810717055349706,1,0.2188005650004925
7,587,Decrease,0.25,0.1,0.012589254117941663,1,0.3385842700008652
7,588,Control,0.0,0.25,0.03162277660168378,1,0.4139877119996527
7,589,Equal_null,0.1,0.1,0.07943282347242814,0,0.5661846289985988
7,590,Increase,0.1,0.25,0.025118864315095794,0,1.2735347419984464
7,591,Equal,0.1,0.1,0.015848931924611124,0,0.956658666000294
7,592,Equal,0.25,0.25,0.01995262314968879,0,99
7,593,Control,0.0,0.25,0.025118864315095787,0,99
7,594,Equal,0.25,0.25,0.025118864315095794,0,0.7823163449993444
7,595,Equal,0.1,0.1,0.019952623149688785,0,0.4905175579988281
7,596,Decrease_null,0.25,0.1,0.01995262314968879,1,0.44664748800096277
7,597,Decrease,0.25,0.1,0.009999999999999992,0,0.483846901999641
7,598,Decrease,0.25,0.1,0.012589254117941663,0,0.5561034539987304
7,599,Equal,0.1,0.1,0.025118864315095787,0,0.5832981370003836
7,600,Equal,0.25,0.25,0.031622776601683784,0,0.511057128000175
7,601,Control,0.0,0.25,0.03162277660168378,1,0.3157978320014081
7,602,Increase,0.1,0.25,0.031622776601683784,1,0.3357128370007558
7,603,Increase,0.1,0.25,0.02511886431509579,1,0.37681126299867174
7,604,Control,0.0,0.25,0.025118864315095787,1,0.3641980150005111
7,605,Equal,0.25,0.25,0.03981071705534971,1,0.2840203110008588
7,606,Control,0.0,0.25,0.019952623149688785,1,0.2402668349986925
7,607,Control,0.0,0.25,0.015848931924611124,1,0.323288338000566
7,608,Control,0.0,0.1,0.019952623149688785,1,0.25164008399951854
7,609,Equal,0.25,0.25,0.031622776601683784,1,0.2077529289999802
7,610,Equal,0.1,0.1,0.03162277660168378,1,0.10693162999996275
7,611,Equal,0.1,0.1,0.025118864315095787,1,0.27013150099992345
7,612,Decrease,0.25,0.1,0.015848931924611124,1,0.21750033400167013
7,613,Increase,0.1,0.25,0.01995262314968879,0,0.3245679960000416
7,614,Decrease,0.25,0.1,0.012589254117941663,0,0.20122278399867355
7,615,Decrease,0.25,0.1,0.015848931924611124,0,0.2032015759996284
7,616,Control,0.0,0.25,0.012589254117941663,0,0.36384880199875624
7,617,Control,0.0,0.1,0.015848931924611124,0,99
7,618,Increase,0.1,0.25,0.025118864315095794,1,0.31278175500119687
7,619,Decrease,0.25,0.1,0.019952623149688785,1,0.2119548720002058
7,620,Control,0.0,0.1,0.019952623149688785,0,0.20493071700002474
7,621,Decrease,0.25,0.1,0.015848931924611124,0,0.376123803000155
7,622,Equal,0.1,0.1,0.019952623149688785,0,0.37135746000058134
7,623,Control,0.0,0.1,0.025118864315095787,1,0.3102947759998642
7,624,Decrease,0.25,0.1,0.019952623149688785,1,0.23363680799957365
7,625,Decrease,0.25,0.1,0.015848931924611124,1,0.1978583960008109
7,626,Decrease,0.25,0.1,0.012589254117941663,1,0.09710588499910955
7,627,Decrease,0.25,0.1,0.009999999999999992,1,0.01229268000133743
7,628,Decrease,0.25,0.1,0.007943282347242809,0,99
7,629,Control,0.0,0.1,0.019952623149688785,0,0.23374086100011482
7,630,Increase_null,0.1,0.25,0.012589254117941666,1,0.4456535230001464
7,631,Control,0.0,0.25,0.015848931924611124,1,0.5260666889989807
7,632,Equal,0.1,0.1,0.025118864315095787,0,1.1931368629993813
7,633,Control,0.0,0.25,0.012589254117941663,0,0.1382655170000362
7,634,Increase,0.1,0.25,0.01995262314968879,0,0.39047631100038416
7,635,Equal,0.25,0.25,0.02511886431509579,1,0.19376699200074654
7,636,Equal_null,0.25,0.25,0.05011872336272722,1,0.48412744699999166
7,637,Control_null,0.0,0.25,0.00794328234724281,0,0.14409182800045528
7,638,Control,0.0,0.1,0.025118864315095787,0,0.14610118199925637
7,639,Control_null,0.0,0.1,0.05011872336272722,1,0.4142948799999431
7,640,Decrease,0.25,0.1,0.009999999999999993,0,0.2756309889991826
7,641,Equal,0.25,0.25,0.01995262314968879,0,99
7,642,Equal,0.25,0.25,0.025118864315095794,0,0.08796841000003042
7,643,Control,0.0,0.1,0.03162277660168378,0,0.09920428800069203
7,644,Decrease,0.25,0.1,0.012589254117941664,0,0.2273422809994372
7,645,Control,0.0,0.1,0.039810717055349706,0,99
7,646,Decrease_null,0.25,0.1,0.015848931924611127,1,0.02482069899997441
7,647,Control,0.0,0.25,0.015848931924611124,0,0.004086535998794716
7,648,Control,0.0,0.1,0.050118723362727206,0,0.07102136299909034
7,649,Control,0.0,0.1,0.0630957344480193,1,0.21817311799895833
7,650,Control,0.0,0.25,0.019952623149688785,0,0.24665462099983415
7,651,Decrease,0.25,0.1,0.015848931924611127,0,99
7,652,Control,0.0,0.25,0.025118864315095787,0,99
7,653,Control,0.0,0.1,0.050118723362727206,1,0.07228967500122963
7,654,Control,0.0,0.25,0.03162277660168378,1,0.17228682200038747
7,655,Equal,0.25,0.25,0.031622776601683784,1,0.061592616999405436
7,656,Control,0.0,0.25,0.025118864315095787,0,0.19232322700008808
7,657,Control,0.0,0.25,0.03162277660168378,1,0.11393852999935916
7,658,Control,0.0,0.25,0.025118864315095787,0,0.16437217699967732
7,659,Control,0.0,0.25,0.03162277660168378,0,0.214263330999529
7,660,Decrease,0.25,0.1,0.01995262314968879,1,0.11443827400034934
7,661,Control,0.0,0.25,0.039810717055349706,1,0.2615198999992572
7,662,Control,0.0,0.25,0.03162277660168378,1,0.28886279100152024
7,663,Control,0.0,0.25,0.025118864315095787,1,0.14812340600110474
7,664,Control,0.0,0.25,0.019952623149688785,1,0.1522748759998649
7,665,Equal,0.25,0.25,0.02511886431509579,1,0.1554619359994831
7,666,Equal,0.25,0.25,0.01995262314968879,1,0.006620543999815709
7,667,Decrease,0.25,0.1,0.015848931924611127,1,0.033681801998682204
7,668,Equal,0.25,0.25,0.015848931924611127,0,99
7,669,Equal,0.25,0.25,0.01995262314968879,1,0.04617433200110099
7,670,Control_null,0.0,0.25,0.009999999999999995,0,0.1342708419997507
7,671,Decrease,0.25,0.1,0.012589254117941666,0,0.32246196100095403
7,672,Equal,0.25,0.25,0.015848931924611127,0,0.17144669399931445
7,673,Control,0.0,0.1,0.039810717055349706,0,0.12586371900033555
7,674,Increase,0.1,0.25,0.025118864315095794,0,99
7,675,Control_null,0.0,0.1,0.03981071705534971,0,0.3643339879999985
7,676,Increase,0.1,0.25,0.031622776601683784,1,0.06324527499964461
7,677,Equal_null,0.1,0.1,0.09999999999999999,0,0.07601285799864854
7,678,Equal,0.25,0.25,0.01995262314968879,0,99
7,679,Equal,0.1,0.1,0.03162277660168378,1,0.22594031100015854
7,680,Equal,0.1,0.1,0.025118864315095787,0,99
7,681,Decrease,0.25,0.1,0.015848931924611127,0,99
7,682,Equal_null,0.25,0.25,0.03981071705534971,0,0.09754773799977556
7,683,Decrease,0.25,0.1,0.01995262314968879,0,99
7,684,Increase,0.1,0.25,0.02511886431509579,0,0.14090599700102757
7,685,Equal,0.1,0.1,0.03162277660168378,0,0.24692375199992966
7,686,Equal,0.25,0.25,0.025118864315095794,0,0.29036196600100084
7,687,Increase,0.1,0.25,0.031622776601683784,1,0.12530854400029057
7,688,Increase,0.1,0.25,0.02511886431509579,1,0.18459806000100798
7,689,Increase,0.1,0.25,0.01995262314968879,0,99
7,690,Control,0.0,0.1,0.050118723362727206,0,99
7,691,Decrease_null,0.25,0.1,0.012589254117941666,1,0.36660977199971967
7,692,Equal,0.1,0.1,0.039810717055349706,1,0.3756182209999679
7,693,Equal,0.25,0.25,0.031622776601683784,1,0.122575063000113
7,694,Increase_null,0.1,0.25,0.009999999999999995,1,0.170851736998884
7,695,Control,0.0,0.1,0.0630957344480193,1,0.23869251799987978
7,696,Control,0.0,0.1,0.050118723362727206,0,0.22318954199909058
7,697,Control,0.0,0.1,0.0630957344480193,1,0.21835315499993158
7,698,Decrease,0.25,0.1,0.025118864315095794,1,0.11644124899976305
7,699,Equal,0.1,0.1,0.03162277660168378,1,0.11146362399995269
7,700,Equal,0.25,0.25,0.02511886431509579,1,0.011918371999854571
7,701,Control,0.0,0.1,0.050118723362727206,0,99
7,702,Decrease,0.25,0.1,0.01995262314968879,1,0.17827905299964186
7,703,Equal,0.25,0.25,0.01995262314968879,0,0.382384070999251
7,704,Equal,0.25,0.25,0.025118864315095794,0,0.11449207999976352
7,705,Decrease_null,0.25,0.1,0.009999999999999995,1,0.33169466700019257
7,706,Increase,0.1,0.25,0.025118864315095794,0,0.2001384519990097
7,707,Control,0.0,0.1,0.0630957344480193,1,0.08017165599994769
7,708,Increase,0.1,0.25,0.031622776601683784,1,0.10728578999987803
7,709,Control,0.0,0.1,0.050118723362727206,0,99
7,710,Equal,0.1,0.1,0.025118864315095787,0,99
7,711,Control,0.0,0.1,0.0630957344480193,0,99
7,712,Equal,0.1,0.1,0.03162277660168378,0,99
7,713,Decrease,0.25,0.1,0.015848931924611127,0,99
7,714,Equal,0.1,0.1,0.039810717055349706,0,99
7,715,Decrease,0.25,0.1,0.01995262314968879,1,0.11176566899848694
7,716,Increase,0.1,0.25,0.02511886431509579,1,0.1158629280016612
7,717,Decrease,0.25,0.1,0.015848931924611127,0,99
7,718,Control_null,0.0,0.1,0.05011872336272721,0,0.160979177999252
7,719,Equal,0.1,0.1,0.050118723362727206,1,0.11593400599849701
7,720,Increase,0.1,0.25,0.01995262314968879,0,0.5984346620007273
7,721,Decrease,0.25,0.1,0.01995262314968879,1,0.3148877910007286
7,722,Decrease,0.25,0.1,0.015848931924611127,0,0.3043347779985197
7,723,Equal,0.1,0.1,0.039810717055349706,0,0.28096486600043136
7,724,Equal,0.25,0.25,0.031622776601683784,1,0.16434232499887003
7,725,Equal,0.1,0.1,0.050118723362727206,1,0.3484571949993551
7,726,Equal,0.1,0.1,0.039810717055349706,1,0.15253294600006484
7,727,Decrease,0.25,0.1,0.01995262314968879,0,0.27255717600019125
7,728,Equal,0.25,0.25,0.02511886431509579,0,0.37996765299976687
7,729,Equal,0.25,0.25,0.031622776601683784,1,0.3109498009998788
7,730,Equal,0.1,0.1,0.03162277660168378,1,0.2022691969996231
7,731,Decrease,0.25,0.1,0.025118864315095794,1,0.17413135099923238
7,732,Equal,0.25,0.25,0.02511886431509579,1,0.15166728799886187
7,733,Equal,0.1,0.1,0.025118864315095787,1,0.19477552799980913
7,734,Decrease,0.25,0.1,0.01995262314968879,1,0.17528763200061803
7,735,Equal_null,0.25,0.25,0.05011872336272721,1,0.3484091490008723
7,736,Control,0.0,0.1,0.07943282347242812,0,0.16512873700048658
7,737,Control,0.0,0.1,0.09999999999999998,1,0.15955781800039404
7,738,Increase,0.1,0.25,0.025118864315095794,1,0.12872944000082498
7,739,Decrease,0.25,0.1,0.015848931924611127,0,0.37979506899864646
7,740,Equal,0.1,0.1,0.019952623149688785,0,0.3171429920002993
7,741,Control,0.0,0.1,0.07943282347242812,1,0.032308499999999185
7,742,Increase,0.1,0.25,0.01995262314968879,0,99
7,743,Control_null,0.0,0.25,0.012589254117941666,0,0.014648108999608667
7,744,Equal,0.1,0.1,0.025118864315095787,0,99
7,745,Increase,0.1,0.25,0.025118864315095794,1,0.30938566500117304
7,746,Control,0.0,0.1,0.0630957344480193,0,0.6562572490001912
7,747,Equal,0.25,0.25,0.01995262314968879,1,0.356832351999401
7,748,Equal,0.1,0.1,0.03162277660168378,1,0.19415908199880505
7,749,Decrease,0.25,0.1,0.01995262314968879,0,0.1948727549988689
7,750,Equal,0.25,0.25,0.015848931924611127,0,0.14203141300095012
7,751,Equal,0.25,0.25,0.01995262314968879,0,0.04686504100027378
7,752,Equal,0.1,0.1,0.025118864315095787,0,99
7,753,Equal,0.25,0.25,0.025118864315095794,1,0.30551130099956936
7,754,Equal,0.25,0.25,0.01995262314968879,1,0.4539949810005055
7,755,Control,0.0,0.1,0.07943282347242812,1,0.1769657749991893
7,756,Equal,0.25,0.25,0.015848931924611127,1,0.1641045500000473
7,757,Increase_null,0.1,0.25,0.00794328234724281,1,0.2793215190013143
7,758,Equal,0.25,0.25,0.012589254117941666,0,0.586219759999949
7,759,Increase,0.1,0.25,0.01995262314968879,0,0.1816612519996852
7,760,Equal,0.1,0.1,0.03162277660168378,0,0.04109925199918507
7,761,Increase,0.1,0.25,0.025118864315095794,1,0.6239234080003371
7,762,Control,0.0,0.1,0.0630957344480193,1,0.6393860630014387
7,763,Equal,0.25,0.25,0.015848931924611127,1,0.32229440999981307
7,764,Decrease_null,0.25,0.1,0.00794328234724281,1,0.3316755429987097
7,765,Equal,0.1,0.1,0.039810717055349706,1,0.19888523999907193
7,766,Increase,0.1,0.25,0.01995262314968879,0,0.3038753539985919
7,767,Equal,0.1,0.1,0.03162277660168378,1,0.3628398749988264
7,768,Increase,0.1,0.25,0.025118864315095794,0,0.33440180599973246
7,769,Increase,0.1,0.25,0.031622776601683784,1,0.12956746500094596
7,770,Equal,0.1,0.1,0.025118864315095787,0,99
7,771,Equal,0.25,0.25,0.012589254117941666,0,99
7,772,Equal,0.1,0.1,0.03162277660168378,1,0.20443294200049422
7,773,Equal,0.25,0.25,0.015848931924611127,0,1.0807775869998295
7,774,Equal_null,0.25,0.25,0.03981071705534971,1,0.9715717130002304
7,775,Control,0.0,0.1,0.050118723362727206,0,0.1476914079994458
7,776,Control,0.0,0.1,0.0630957344480193,1,0.17472568199991656
7,777,Increase,0.1,0.25,0.02511886431509579,1,0.24005184300040128
7,778,Equal,0.1,0.1,0.025118864315095787,1,0.21922210400043696
7,779,Increase,0.1,0.25,0.01995262314968879,1,0.4285606880002888
7,780,Control,0.0,0.1,0.050118723362727206,1,0.23170667699923797
7,781,Control,0.0,0.1,0.039810717055349706,1,0.14676227699965239
7,782,Equal,0.1,0.1,0.019952623149688785,1,0.26199906100009684
7,783,Increase,0.1,0.25,0.015848931924611127,1,0.40890658299940696
7,784,Increase,0.1,0.25,0.012589254117941666,1,0.6524213669999881
7,785,Control,0.0,0.1,0.03162277660168378,1,0.4804519440003787
7,786,Equal,0.1,0.1,0.015848931924611124,0,0.5721826089993556
7,787,Control,0.0,0.1,0.025118864315095787,1,0.19075290799992217
7,788,Equal,0.1,0.1,0.019952623149688785,0,0.20003264499973739
7,789,Increase,0.1,0.25,0.009999999999999995,0,0.4752323860011529
7,790,Increase,0.1,0.25,0.012589254117941666,0,0.2825237699998979
7,791,Control,0.0,0.1,0.019952623149688785,0,0.01384906700150168
7,792,Increase,0.1,0.25,0.015848931924611127,0,0.35862776700014365
7,793,Control,0.0,0.1,0.025118864315095787,0,0.23508227499951317
7,794,Equal,0.1,0.1,0.025118864315095787,0,0.21427899499940395
7,795,Increase,0.1,0.25,0.01995262314968879,0,0.2972633239987772
7,796,Control_null,0.0,0.1,0.0630957344480193,1,0.16460927200023434
7,797,Increase,0.1,0.25,0.025118864315095794,0,0.048690121999243274
7,798,Equal,0.1,0.1,0.03162277660168378,0,99
7,799,Control,0.0,0.1,0.03162277660168378,0,0.1352334039984271
7,800,Increase,0.1,0.25,0.031622776601683784,0,0.059337138998671435
7,801,Increase,0.1,0.25,0.03981071705534971,0,0.10755511999923328
7,802,Control,0.0,0.1,0.039810717055349706,0,99
7,803,Increase,0.1,0.25,0.05011872336272721,1,0.22280532799959474
7,804,Control,0.0,0.1,0.050118723362727206,1,0.07403133499974501
7,805,Control,0.0,0.1,0.039810717055349706,0,0.14819125800022448
7,806,Control,0.0,0.1,0.050118723362727206,1,0.343457684999521
7,807,Control,0.0,0.1,0.039810717055349706,1,0.21070067799882963
7,808,Control,0.0,0.1,0.03162277660168378,1,0.18204344699915964
7,809,Control,0.0,0.1,0.025118864315095787,1,0.18471600199882232
7,810,Control,0.0,0.1,0.019952623149688785,1,0.14016537300085474
7,811,Control,0.0,0.1,0.015848931924611124,0,0.24926353100090637
7,812,Control,0.0,0.1,0.019952623149688785,0,0.3397814469990408
7,813,Control,0.0,0.1,0.025118864315095787,0,0.24774059700030193
7,814,Control,0.0,0.1,0.03162277660168378,0,99
7,815,Control,0.0,0.1,0.039810717055349706,0,99
7,816,Equal_null,0.1,0.1,0.1,0,99
7,817,Control,0.0,0.1,0.050118723362727206,0,0.20755255299991404
7,818,Control,0.0,0.1,0.0630957344480193,1,0.48183082699870283
7,819,Control,0.0,0.1,0.050118723362727206,1,0.18101786599982006
7,820,Control,0.0,0.1,0.039810717055349706,1,0.36837119499978144
7,821,Control,0.0,0.1,0.03162277660168378,1,0.2511881179998454
7,822,Control,0.0,0.1,0.025118864315095787,1,0.23832069499985664
7,823,Equal_null,0.25,0.25,0.031622776601683784,1,0.6828436359992338
7,824,Control,0.0,0.1,0.019952623149688785,1,0.6068188839999493
7,825,Control,0.0,0.1,0.015848931924611124,0,0.23278436300097383
7,826,Control,0.0,0.1,0.019952623149688785,0,0.46793613100089715
7,827,Equal_null,0.25,0.25,0.02511886431509579,1,0.34004250900034094
7,828,Equal_null,0.1,0.1,0.1,1,0.10461308100093447
7,829,Equal_null,0.25,0.25,0.01995262314968879,1,0.016854642000907916
7,830,Control_null,0.0,0.1,0.050118723362727206,0,0.1476773280010093
7,831,Equal_null,0.25,0.25,0.015848931924611127,1,0.34308631700150727
7,832,Equal_null,0.1,0.1,0.07943282347242815,1,0.38621797999985574
7,833,Equal_null,0.1,0.1,0.06309573444801932,1,0.45353848400009156
7,834,Equal_null,0.25,0.25,0.012589254117941666,1,0.40857051700004376
7,835,Equal_null,0.25,0.25,0.009999999999999995,1,0.03708536900012405
7,836,Equal_null,0.1,0.1,0.05011872336272722,1,0.3695728260008764
7,837,Equal_null,0.25,0.25,0.00794328234724281,1,0.14959234900015872
7,838,Equal_null,0.1,0.1,0.03981071705534971,0,99
7,839,Equal_null,0.1,0.1,0.05011872336272721,1,0.4417985529998987
