Participant_Number,Trial_Number,Condition,FC_distal,FC_proximal,Target_Contrast,Correct_Response,Reaction_Time
22,0,Control,0.0,0.25,0.1,1,0.6742329389999213
22,1,Decrease,0.25,0.1,0.1,1,0.5413823430026241
22,2,Decrease,0.25,0.1,0.07943282347242815,1,0.28850699399845325
22,3,Decrease,0.25,0.1,0.06309573444801932,1,0.5487096550023125
22,4,Decrease,0.25,0.1,0.05011872336272722,1,0.5623508070020762
22,5,Equal,0.1,0.1,0.1,1,0.467116783001984
22,6,Equal_null,0.1,0.1,0.1,1,0.5338224330007506
22,7,Decrease,0.25,0.1,0.03981071705534971,1,0.5275496159993054
22,8,Control,0.0,0.1,0.1,1,0.5705462269979762
22,9,Control,0.0,0.1,0.07943282347242815,1,0.5384906760009471
22,10,Increase,0.1,0.25,0.1,1,0.5500425860009273
22,11,Increase,0.1,0.25,0.07943282347242815,1,0.4812345189966436
22,12,Equal,0.1,0.1,0.07943282347242815,1,0.5324717139992572
22,13,Increase,0.1,0.25,0.06309573444801932,1,0.575346763998823
22,14,Increase,0.1,0.25,0.05011872336272722,1,0.45035162799831596
22,15,Control,0.0,0.25,0.07943282347242815,1,0.5337338290009939
22,16,Equal,0.1,0.1,0.06309573444801932,1,0.6101861320021271
22,17,Control_null,0.0,0.25,0.1,1,0.600213153000368
22,18,Control_null,0.0,0.25,0.07943282347242815,1,0.6644630289993074
22,19,Equal,0.1,0.1,0.05011872336272722,1,0.5315640929984511
22,20,Decrease,0.25,0.1,0.031622776601683784,1,0.6677849869993224
22,21,Equal,0.1,0.1,0.03981071705534971,1,0.543886334002309
22,22,Decrease_null,0.25,0.1,0.1,1,0.5923473789989657
22,23,Increase,0.1,0.25,0.03981071705534971,1,0.5555426529972465
22,24,Control,0.0,0.25,0.06309573444801932,1,0.541705035000632
22,25,Control,0.0,0.1,0.06309573444801932,1,0.5697970369983523
22,26,Equal,0.1,0.1,0.031622776601683784,1,0.6451908099988941
22,27,Control,0.0,0.1,0.05011872336272722,1,0.4721563929997501
22,28,Increase,0.1,0.25,0.031622776601683784,1,0.5313543459997163
22,29,Control,0.0,0.1,0.03981071705534971,1,0.45680594299847144
22,30,Increase,0.1,0.25,0.02511886431509579,1,0.5091634669988707
22,31,Equal,0.25,0.25,0.1,1,0.5255580070006545
22,32,Control,0.0,0.1,0.031622776601683784,1,0.3128341410010762
22,33,Control_null,0.0,0.1,0.1,1,0.4260398670012364
22,34,Control,0.0,0.25,0.05011872336272722,1,0.46934904800218646
22,35,Control,0.0,0.1,0.02511886431509579,1,0.4935445160008385
22,36,Decrease,0.25,0.1,0.02511886431509579,1,0.4887054970022291
22,37,Control_null,0.0,0.25,0.06309573444801932,1,0.5960991720021411
22,38,Increase,0.1,0.25,0.01995262314968879,1,0.45524540200131014
22,39,Decrease,0.25,0.1,0.01995262314968879,0,0.5683561020014167
22,40,Control,0.0,0.1,0.01995262314968879,1,0.507502338001359
22,41,Equal,0.1,0.1,0.02511886431509579,1,0.4396990540008119
22,42,Equal,0.1,0.1,0.01995262314968879,0,0.4832737200013071
22,43,Equal,0.25,0.25,0.07943282347242815,1,0.5045862110018788
22,44,Control,0.0,0.25,0.03981071705534971,0,0.4332349319993227
22,45,Increase,0.1,0.25,0.015848931924611127,1,0.5961988449998898
22,46,Equal,0.25,0.25,0.06309573444801932,1,0.5807069199981925
22,47,Decrease,0.25,0.1,0.025118864315095794,1,0.488798862999829
22,48,Equal,0.25,0.25,0.05011872336272722,1,0.4890984439989552
22,49,Increase,0.1,0.25,0.012589254117941666,0,0.6683544539991999
22,50,Increase,0.1,0.25,0.015848931924611127,1,0.5434830320009496
22,51,Decrease,0.25,0.1,0.01995262314968879,0,0.5305260889981582
22,52,Control,0.0,0.25,0.05011872336272721,1,0.40555323399894405
22,53,Control,0.0,0.25,0.03981071705534971,1,0.4658886249999341
22,54,Equal_null,0.25,0.25,0.1,1,0.5091795439984708
22,55,Control,0.0,0.1,0.015848931924611127,1,0.4981439490002231
22,56,Decrease,0.25,0.1,0.025118864315095794,1,0.5099328120013524
22,57,Decrease,0.25,0.1,0.01995262314968879,1,0.34275162300036754
22,58,Equal,0.25,0.25,0.03981071705534971,1,0.36278717199820676
22,59,Increase_null,0.1,0.25,0.1,1,0.5632194879981398
22,60,Equal,0.1,0.1,0.025118864315095794,1,0.35841877999700955
22,61,Equal,0.1,0.1,0.01995262314968879,1,0.4464556619968789
22,62,Control,0.0,0.25,0.031622776601683784,1,0.5055636180004512
22,63,Decrease,0.25,0.1,0.015848931924611127,1,0.445949010001641
22,64,Decrease,0.25,0.1,0.012589254117941666,0,0.44122134799908963
22,65,Equal,0.25,0.25,0.031622776601683784,1,0.26016213999901083
22,66,Decrease,0.25,0.1,0.015848931924611127,1,0.45539874200039776
22,67,Control,0.0,0.1,0.012589254117941666,0,0.47460808100004215
22,68,Increase,0.1,0.25,0.012589254117941666,0,0.4395711390025099
22,69,Control,0.0,0.25,0.02511886431509579,1,0.40422792800018215
22,70,Control_null,0.0,0.25,0.05011872336272722,1,0.444708963001176
22,71,Increase,0.1,0.25,0.015848931924611127,1,0.27197226800126373
22,72,Control,0.0,0.1,0.015848931924611127,0,0.2655927809973946
22,73,Decrease_null,0.25,0.1,0.07943282347242815,1,0.404730935999396
22,74,Increase_null,0.1,0.25,0.07943282347242815,1,0.3658405460009817
22,75,Equal,0.1,0.1,0.015848931924611127,1,0.39309114500065334
22,76,Decrease,0.25,0.1,0.012589254117941666,0,0.8683879390009679
22,77,Decrease,0.25,0.1,0.015848931924611127,1,0.4714294279983733
22,78,Control,0.0,0.1,0.01995262314968879,0,0.39441455700216466
22,79,Decrease,0.25,0.1,0.012589254117941666,0,0.2856335489996127
22,80,Control,0.0,0.1,0.025118864315095794,1,0.43285318999915035
22,81,Equal,0.1,0.1,0.012589254117941666,0,0.49431594199995743
22,82,Increase,0.1,0.25,0.012589254117941666,0,0.43473416800043196
22,83,Decrease,0.25,0.1,0.015848931924611127,0,0.38754352000250947
22,84,Equal,0.1,0.1,0.015848931924611127,0,0.11862170500171487
22,85,Control,0.0,0.1,0.01995262314968879,1,0.27870391300166375
22,86,Equal,0.25,0.25,0.02511886431509579,1,0.3458769280005072
22,87,Increase,0.1,0.25,0.015848931924611127,1,0.387001457002043
22,88,Increase,0.1,0.25,0.012589254117941666,0,0.46248218699838617
22,89,Equal,0.25,0.25,0.01995262314968879,0,0.49757070199848386
22,90,Equal,0.25,0.25,0.025118864315095794,1,0.3179310119994625
22,91,Equal,0.1,0.1,0.01995262314968879,0,0.5052079679990129
22,92,Control,0.0,0.25,0.01995262314968879,1,0.32429869699990377
22,93,Equal,0.25,0.25,0.01995262314968879,0,0.2712051969974709
22,94,Decrease,0.25,0.1,0.01995262314968879,1,0.3319281289986975
22,95,Control_null,0.0,0.25,0.03981071705534971,1,0.5120345530012855
22,96,Equal_null,0.1,0.1,0.07943282347242815,1,0.4149083900010737
22,97,Control,0.0,0.1,0.015848931924611127,0,0.45018271899971296
22,98,Equal,0.25,0.25,0.025118864315095794,1,0.3233496749999176
22,99,Increase,0.1,0.25,0.015848931924611127,0,0.3504210650025925
22,100,Equal,0.25,0.25,0.01995262314968879,0,0.3757731759978924
22,101,Control,0.0,0.1,0.01995262314968879,0,0.31377431099826936
22,102,Control_null,0.0,0.1,0.07943282347242815,1,0.1730605970005854
22,103,Increase,0.1,0.25,0.01995262314968879,0,0.01630661699891789
22,104,Control_null,0.0,0.1,0.06309573444801932,1,0.2115331620007055
22,105,Equal,0.1,0.1,0.025118864315095794,1,0.2955323709975346
22,106,Control,0.0,0.1,0.025118864315095794,1,0.27488699600144173
22,107,Decrease,0.25,0.1,0.015848931924611127,0,0.47134869700312265
22,108,Increase,0.1,0.25,0.025118864315095794,1,0.36347270400074194
22,109,Decrease,0.25,0.1,0.01995262314968879,0,0.5871967359998962
22,110,Equal,0.25,0.25,0.025118864315095794,1,0.28664066000055755
22,111,Control,0.0,0.25,0.015848931924611127,0,0.35874369199882494
22,112,Control,0.0,0.1,0.01995262314968879,0,0.5391063209972344
22,113,Control,0.0,0.1,0.025118864315095794,1,0.3081700209986593
22,114,Equal,0.1,0.1,0.01995262314968879,0,0.36725287399895024
22,115,Control,0.0,0.1,0.01995262314968879,1,0.2344937210000353
22,116,Decrease,0.25,0.1,0.025118864315095794,0,0.2775558240027749
22,117,Control,0.0,0.1,0.015848931924611127,1,0.3128412530022615
22,118,Control_null,0.0,0.1,0.05011872336272722,1,0.6043943390031927
22,119,Control,0.0,0.1,0.012589254117941666,1,0.3603636949992506
22,120,Equal,0.1,0.1,0.025118864315095794,0,0.5195547769981204
22,121,Increase,0.1,0.25,0.01995262314968879,0,0.4998931310001353
22,122,Equal,0.1,0.1,0.031622776601683784,1,0.26789692799866316
22,123,Equal,0.1,0.1,0.02511886431509579,1,0.3191599329984456
22,124,Control,0.0,0.25,0.01995262314968879,1,0.3293751409983088
22,125,Control,0.0,0.25,0.015848931924611127,1,0.3724825930003135
22,126,Control_null,0.0,0.1,0.03981071705534971,1,0.24752774400258204
22,127,Equal,0.1,0.1,0.01995262314968879,0,0.42004130799978157
22,128,Equal,0.1,0.1,0.025118864315095794,1,0.4790899729996454
22,129,Control,0.0,0.25,0.012589254117941666,0,0.4752090779984428
22,130,Control,0.0,0.25,0.015848931924611127,0,0.7686162149984739
22,131,Control,0.0,0.25,0.01995262314968879,1,0.3697508680015744
22,132,Decrease,0.25,0.1,0.031622776601683784,1,0.4527150489993801
22,133,Equal,0.25,0.25,0.01995262314968879,1,0.39795013700131676
22,134,Equal_null,0.1,0.1,0.06309573444801932,1,0.4493259709997801
22,135,Control_null,0.0,0.25,0.031622776601683784,1,0.47325237700351863
22,136,Control,0.0,0.25,0.015848931924611127,1,0.46024005099752685
22,137,Decrease,0.25,0.1,0.02511886431509579,1,0.4397812979987066
22,138,Equal,0.1,0.1,0.01995262314968879,1,0.3790928909984359
22,139,Equal,0.1,0.1,0.015848931924611127,1,0.42907776799984276
22,140,Control,0.0,0.1,0.009999999999999995,0,0.4002212849991338
22,141,Increase,0.1,0.25,0.025118864315095794,1,0.30093536300046253
22,142,Equal,0.25,0.25,0.015848931924611127,1,0.44781707799847936
22,143,Equal,0.1,0.1,0.012589254117941666,0,0.4773198639995826
22,144,Control,0.0,0.25,0.012589254117941666,0,0.5821333480016619
22,145,Decrease,0.25,0.1,0.01995262314968879,1,0.2975300879988936
22,146,Increase,0.1,0.25,0.01995262314968879,1,0.42526298300072085
22,147,Decrease,0.25,0.1,0.015848931924611127,0,0.292548858000373
22,148,Equal,0.25,0.25,0.012589254117941666,0,0.5018443110020598
22,149,Decrease,0.25,0.1,0.01995262314968879,1,0.33713754799828166
22,150,Control,0.0,0.25,0.015848931924611127,1,0.49132321999786654
22,151,Increase,0.1,0.25,0.015848931924611127,0,0.30280497100102366
22,152,Control,0.0,0.1,0.012589254117941666,0,0.4337637979988358
22,153,Decrease,0.25,0.1,0.015848931924611127,0,0.3794822959971498
22,154,Increase,0.1,0.25,0.01995262314968879,0,0.47250964200065937
22,155,Increase,0.1,0.25,0.025118864315095794,1,0.3161601619976864
22,156,Equal,0.25,0.25,0.015848931924611127,0,0.42578289800076163
22,157,Increase,0.1,0.25,0.01995262314968879,1,0.3144982810008514
22,158,Control,0.0,0.25,0.012589254117941666,0,0.3736897089984268
22,159,Control,0.0,0.1,0.015848931924611127,0,0.39781532699998934
22,160,Control,0.0,0.25,0.015848931924611127,1,0.38501369599907775
22,161,Decrease,0.25,0.1,0.01995262314968879,0,0.5062466939998558
22,162,Control,0.0,0.25,0.012589254117941666,0,0.3894069730013143
22,163,Equal,0.25,0.25,0.01995262314968879,0,0.40768915000080597
22,164,Equal,0.1,0.1,0.015848931924611127,1,0.3397877309980686
22,165,Equal_null,0.1,0.1,0.05011872336272722,1,0.45478744100182666
22,166,Control,0.0,0.1,0.01995262314968879,0,0.37815411800329457
22,167,Equal,0.1,0.1,0.012589254117941666,0,0.558237631998054
22,168,Equal,0.1,0.1,0.015848931924611127,1,0.3948278139978356
22,169,Decrease,0.25,0.1,0.025118864315095794,1,0.44014204099948984
22,170,Increase_null,0.1,0.25,0.06309573444801932,1,0.40885161600090214
22,171,Equal_null,0.1,0.1,0.03981071705534971,1,0.5240849439978774
22,172,Control,0.0,0.25,0.015848931924611127,1,0.42029689500122913
22,173,Control,0.0,0.25,0.012589254117941666,0,0.5114279350018478
22,174,Control,0.0,0.1,0.025118864315095794,1,0.36073997399944346
22,175,Equal,0.1,0.1,0.012589254117941666,0,0.4278552129981108
22,176,Equal,0.1,0.1,0.015848931924611127,0,0.5267867340007797
22,177,Equal,0.25,0.25,0.025118864315095794,1,0.330062133998581
22,178,Control,0.0,0.1,0.01995262314968879,1,0.5494419009992271
22,179,Control_null,0.0,0.25,0.02511886431509579,1,0.45646048200069345
22,180,Equal,0.25,0.25,0.01995262314968879,1,0.36424618499950157
22,181,Control,0.0,0.1,0.015848931924611127,1,0.4335578729987901
22,182,Equal,0.25,0.25,0.015848931924611127,0,0.5013882490020478
22,183,Control,0.0,0.1,0.012589254117941666,0,0.44592063399977633
22,184,Equal,0.1,0.1,0.01995262314968879,0,0.5776109119979083
22,185,Equal,0.25,0.25,0.01995262314968879,1,0.32955186999970465
22,186,Control,0.0,0.25,0.015848931924611127,0,0.49391860399919096
22,187,Decrease,0.25,0.1,0.01995262314968879,0,0.4860694870003499
22,188,Equal,0.1,0.1,0.025118864315095794,1,0.32929433100071037
22,189,Increase,0.1,0.25,0.015848931924611127,0,0.8530257130005339
22,190,Equal,0.1,0.1,0.01995262314968879,0,0.5597663709995686
22,191,Decrease,0.25,0.1,0.025118864315095794,1,0.3067885540003772
22,192,Equal,0.25,0.25,0.015848931924611127,1,0.46202885000093374
22,193,Control_null,0.0,0.1,0.031622776601683784,1,0.4582573499974387
22,194,Control,0.0,0.1,0.015848931924611127,0,0.52677285900063
22,195,Equal,0.1,0.1,0.025118864315095794,1,0.42776025800048956
22,196,Control,0.0,0.25,0.01995262314968879,0,0.33255611099957605
22,197,Control,0.0,0.25,0.025118864315095794,1,0.3675176090000605
22,198,Decrease,0.25,0.1,0.01995262314968879,1,0.7039877000024717
22,199,Equal,0.25,0.25,0.012589254117941666,0,0.492402530999243
22,200,Decrease,0.25,0.1,0.015848931924611127,1,0.4272906959995453
22,201,Equal,0.25,0.25,0.015848931924611127,1,0.5027994679985568
22,202,Control,0.0,0.25,0.01995262314968879,1,0.5698485120010446
22,203,Decrease,0.25,0.1,0.012589254117941666,0,0.42894495599830407
22,204,Equal,0.25,0.25,0.012589254117941666,0,0.4653043770013028
22,205,Decrease,0.25,0.1,0.015848931924611127,1,0.48442597599932924
22,206,Decrease,0.25,0.1,0.012589254117941666,0,0.5037705350005126
22,207,Decrease_null,0.25,0.1,0.06309573444801932,1,0.4293505819987331
22,208,Increase,0.1,0.25,0.01995262314968879,1,0.47434742999757873
22,209,Equal,0.25,0.25,0.015848931924611127,0,0.5220730569999432
22,210,Decrease,0.25,0.1,0.015848931924611127,0,0.4939916869989247
22,211,Equal,0.1,0.1,0.01995262314968879,0,0.4773427319996699
22,212,Decrease_null,0.25,0.1,0.05011872336272722,1,0.44044073700206354
22,213,Control,0.0,0.25,0.015848931924611127,0,0.4419319779990474
22,214,Increase,0.1,0.25,0.015848931924611127,1,0.46148128399727284
22,215,Control,0.0,0.25,0.01995262314968879,1,0.44112175199916237
22,216,Equal,0.1,0.1,0.025118864315095794,1,0.3644797679990006
22,217,Decrease,0.25,0.1,0.01995262314968879,1,0.3677094409977144
22,218,Control,0.0,0.1,0.01995262314968879,0,0.7791004600003362
22,219,Control,0.0,0.25,0.015848931924611127,0,0.6862427689993638
22,220,Control,0.0,0.25,0.01995262314968879,0,0.5958888230015873
22,221,Control,0.0,0.25,0.025118864315095794,1,0.43150025399881997
22,222,Equal,0.25,0.25,0.01995262314968879,0,0.5915992770023877
22,223,Control,0.0,0.1,0.025118864315095794,1,0.44241877700187615
22,224,Control,0.0,0.25,0.01995262314968879,0,0.5949907169997459
22,225,Decrease,0.25,0.1,0.015848931924611127,0,0.5830746600004204
22,226,Control,0.0,0.25,0.025118864315095794,1,0.4403116530011175
22,227,Equal,0.1,0.1,0.01995262314968879,1,0.40360214799875394
22,228,Equal,0.1,0.1,0.015848931924611127,0,0.8788653329975205
22,229,Control,0.0,0.1,0.01995262314968879,1,0.5618046669987962
22,230,Control,0.0,0.25,0.01995262314968879,1,0.5969382290022622
22,231,Decrease,0.25,0.1,0.01995262314968879,1,0.3681671840022318
22,232,Equal,0.25,0.25,0.025118864315095794,0,0.3486554310002248
22,233,Control,0.0,0.25,0.015848931924611127,0,0.7596768530020199
22,234,Equal,0.25,0.25,0.031622776601683784,1,0.44998070300061954
22,235,Decrease,0.25,0.1,0.015848931924611127,1,0.4379560670022329
22,236,Increase,0.1,0.25,0.012589254117941666,0,0.4171770619977906
22,237,Control,0.0,0.25,0.01995262314968879,0,0.7934326950016839
22,238,Equal,0.25,0.25,0.02511886431509579,1,0.6275840130001598
22,239,Increase,0.1,0.25,0.015848931924611127,1,0.4608060159989691
22,240,Increase,0.1,0.25,0.012589254117941666,0,0.545160219000536
22,241,Increase,0.1,0.25,0.015848931924611127,0,0.39572805499847163
22,242,Decrease,0.25,0.1,0.012589254117941666,0,0.3415963549996377
22,243,Control,0.0,0.25,0.025118864315095794,1,0.4887492090019805
22,244,Equal,0.1,0.1,0.01995262314968879,0,0.38040427599844406
22,245,Equal_null,0.1,0.1,0.031622776601683784,1,0.40833616699819686
22,246,Control_null,0.0,0.1,0.02511886431509579,1,0.4203289680008311
22,247,Equal_null,0.25,0.25,0.07943282347242815,1,0.2862396249984158
22,248,Equal,0.1,0.1,0.025118864315095794,1,0.4030617570024333
22,249,Decrease,0.25,0.1,0.015848931924611127,0,0.47596029299893416
22,250,Equal,0.1,0.1,0.01995262314968879,1,0.40620588599995244
22,251,Increase,0.1,0.25,0.01995262314968879,1,0.32247533400004613
22,252,Decrease,0.25,0.1,0.01995262314968879,0,0.41879967099885107
22,253,Equal,0.1,0.1,0.015848931924611127,1,0.32573992300240207
22,254,Equal,0.1,0.1,0.012589254117941666,0,0.4319581689996994
22,255,Control,0.0,0.25,0.01995262314968879,1,0.7074069729969779
22,256,Control,0.0,0.1,0.015848931924611127,0,0.4062483630004863
22,257,Control,0.0,0.1,0.01995262314968879,1,0.3455776229966432
22,258,Increase,0.1,0.25,0.015848931924611127,0,0.5672167520024232
22,259,Equal,0.25,0.25,0.01995262314968879,0,0.49901429999954416
22,260,Control,0.0,0.25,0.015848931924611127,1,0.5009437830012757
22,261,Control,0.0,0.1,0.015848931924611127,1,0.7366366569985985
22,262,Control,0.0,0.25,0.012589254117941666,0,0.4172853470008704
22,263,Equal,0.1,0.1,0.015848931924611127,1,0.3726156650009216
22,264,Control,0.0,0.25,0.015848931924611127,0,0.465002220000315
22,265,Control,0.0,0.1,0.012589254117941666,0,0.6970997800017358
22,266,Control,0.0,0.25,0.01995262314968879,0,0.4201782829986769
22,267,Equal,0.25,0.25,0.025118864315095794,1,0.3582351219993143
22,268,Increase_null,0.1,0.25,0.05011872336272722,1,0.5517172930012748
22,269,Equal,0.1,0.1,0.012589254117941666,0,0.3867777820014453
22,270,Increase,0.1,0.25,0.01995262314968879,0,0.3501759190003213
22,271,Equal,0.1,0.1,0.015848931924611127,1,0.4032889280024392
22,272,Decrease,0.25,0.1,0.025118864315095794,1,0.3206586160013103
22,273,Decrease,0.25,0.1,0.01995262314968879,1,0.44951143299840624
22,274,Increase_null,0.1,0.25,0.03981071705534971,1,0.37242691699793795
22,275,Decrease,0.25,0.1,0.015848931924611127,0,0.38998711299791466
22,276,Increase,0.1,0.25,0.025118864315095794,1,0.44920556400029454
22,277,Equal,0.1,0.1,0.012589254117941666,0,0.42910561800090363
22,278,Decrease_null,0.25,0.1,0.03981071705534971,1,0.2764486419982859
22,279,Increase_null,0.1,0.25,0.031622776601683784,1,0.3837447410005552
22,280,Control,0.0,0.1,0.015848931924611127,1,0.3870025079995685
22,281,Equal,0.25,0.25,0.01995262314968879,1,0.41356860699670506
22,282,Decrease,0.25,0.1,0.01995262314968879,0,0.41698320399882505
22,283,Equal,0.1,0.1,0.015848931924611127,1,0.3324565380025888
22,284,Control,0.0,0.1,0.012589254117941666,0,0.4342083010014903
22,285,Equal,0.1,0.1,0.012589254117941666,0,0.5194659980006691
22,286,Increase_null,0.1,0.25,0.02511886431509579,1,0.24803389600128867
22,287,Increase,0.1,0.25,0.01995262314968879,1,0.42707413699827157
22,288,Control,0.0,0.25,0.025118864315095794,1,0.4926293569988047
22,289,Decrease,0.25,0.1,0.025118864315095794,1,0.4064447230011865
22,290,Control,0.0,0.1,0.015848931924611127,1,0.39364163700156496
22,291,Control,0.0,0.1,0.012589254117941666,0,0.3068287820024125
22,292,Control,0.0,0.1,0.015848931924611127,1,0.365079251001589
22,293,Increase,0.1,0.25,0.015848931924611127,1,0.33625869199750014
22,294,Equal,0.1,0.1,0.015848931924611127,0,0.4595319340005517
22,295,Decrease,0.25,0.1,0.01995262314968879,1,0.438771346998692
22,296,Equal,0.1,0.1,0.01995262314968879,0,0.4819246449987986
22,297,Increase,0.1,0.25,0.012589254117941666,0,0.40756004600189044
22,298,Equal,0.25,0.25,0.015848931924611127,0,0.39546962399981567
22,299,Decrease,0.25,0.1,0.015848931924611127,0,0.34040859599917894
22,300,Control,0.0,0.25,0.01995262314968879,1,0.5596588080006768
22,301,Increase,0.1,0.25,0.015848931924611127,1,0.4649312139990798
22,302,Control,0.0,0.1,0.012589254117941666,0,0.7721138390006672
22,303,Control,0.0,0.25,0.015848931924611127,0,0.48725795000063954
22,304,Control,0.0,0.1,0.015848931924611127,0,0.5354260129970498
22,305,Control,0.0,0.1,0.01995262314968879,0,0.42648117700082366
22,306,Control,0.0,0.25,0.01995262314968879,0,0.12569477899887715
22,307,Increase,0.1,0.25,0.012589254117941666,0,0.14579950299958
22,308,Equal,0.1,0.1,0.025118864315095794,1,0.3091390859990497
22,309,Control,0.0,0.25,0.025118864315095794,1,0.42433510900082183
22,310,Control,0.0,0.1,0.025118864315095794,1,0.3167635239988158
22,311,Equal,0.25,0.25,0.01995262314968879,0,0.1695763630013971
22,312,Increase,0.1,0.25,0.015848931924611127,0,0.2986409889999777
22,313,Equal,0.25,0.25,0.025118864315095794,0,0.36586235399954603
22,314,Increase,0.1,0.25,0.01995262314968879,0,0.4310273760020209
22,315,Control,0.0,0.1,0.01995262314968879,1,0.4104046929969627
22,316,Control,0.0,0.25,0.01995262314968879,1,0.4856403470002988
22,317,Equal_null,0.1,0.1,0.02511886431509579,1,0.42974620799941476
22,318,Decrease,0.25,0.1,0.01995262314968879,0,0.18497593100255472
22,319,Decrease,0.25,0.1,0.025118864315095794,0,0.16503710100005264
22,320,Decrease,0.25,0.1,0.031622776601683784,1,0.2642104529986682
22,321,Increase,0.1,0.25,0.025118864315095794,1,0.3634778989980987
22,322,Control,0.0,0.1,0.015848931924611127,0,0.6068544480003766
22,323,Control,0.0,0.25,0.015848931924611127,0,0.611360965998756
22,324,Decrease,0.25,0.1,0.02511886431509579,1,0.40052965599898016
22,325,Control,0.0,0.1,0.01995262314968879,0,0.5182101529971987
22,326,Control,0.0,0.25,0.01995262314968879,0,0.47440912899764953
22,327,Increase,0.1,0.25,0.01995262314968879,1,0.4106789520010352
22,328,Equal,0.25,0.25,0.031622776601683784,1,0.3816143340009148
22,329,Control,0.0,0.1,0.025118864315095794,1,0.4388305440006661
22,330,Equal,0.25,0.25,0.02511886431509579,1,0.43422098500013817
22,331,Equal,0.1,0.1,0.01995262314968879,0,0.45304440899781184
22,332,Control,0.0,0.1,0.01995262314968879,1,0.37649542999861296
22,333,Equal,0.25,0.25,0.01995262314968879,1,0.4836547849990893
22,334,Control,0.0,0.25,0.025118864315095794,1,0.4468642930005444
22,335,Control_null,0.0,0.25,0.01995262314968879,1,0.4670958269998664
22,336,Equal,0.1,0.1,0.025118864315095794,1,0.31097890400269534
22,337,Control_null,0.0,0.25,0.015848931924611127,1,0.4037548460000835
22,338,Equal,0.25,0.25,0.015848931924611127,1,0.43693244400128606
22,339,Control,0.0,0.25,0.01995262314968879,1,0.6227219389984384
22,340,Equal,0.1,0.1,0.01995262314968879,1,0.4949242229995434
22,341,Equal,0.1,0.1,0.015848931924611127,1,0.5223944149984163
22,342,Increase_null,0.1,0.25,0.01995262314968879,1,0.37009576600030414
22,343,Decrease,0.25,0.1,0.01995262314968879,0,0.4456002759980038
22,344,Control,0.0,0.25,0.015848931924611127,1,0.425925619998452
22,345,Control,0.0,0.1,0.015848931924611127,1,0.39696313999957056
22,346,Control,0.0,0.25,0.012589254117941666,0,0.5201437670002633
22,347,Equal,0.25,0.25,0.012589254117941666,0,0.3713688909992925
22,348,Equal,0.1,0.1,0.012589254117941666,0,0.566641453999182
22,349,Equal,0.25,0.25,0.015848931924611127,0,0.4256091179995565
22,350,Increase,0.1,0.25,0.015848931924611127,0,0.4139215820032405
22,351,Equal,0.1,0.1,0.015848931924611127,0,0.3112616310027079
22,352,Control,0.0,0.25,0.015848931924611127,0,0.2831063070007076
22,353,Increase,0.1,0.25,0.01995262314968879,0,0.2594850460009184
22,354,Control,0.0,0.1,0.012589254117941666,0,0.2947720130032394
22,355,Equal,0.25,0.25,0.01995262314968879,0,0.12774472500314005
22,356,Control,0.0,0.25,0.01995262314968879,0,0.14684759299780126
22,357,Control,0.0,0.1,0.015848931924611127,0,0.423264711000229
22,358,Control,0.0,0.1,0.01995262314968879,1,0.5291851379988657
22,359,Equal,0.1,0.1,0.01995262314968879,1,0.3883567589982704
22,360,Increase,0.1,0.25,0.025118864315095794,0,0.4911325399989437
22,361,Increase,0.1,0.25,0.031622776601683784,1,0.40002387399727013
22,362,Control_null,0.0,0.25,0.012589254117941666,1,0.3082328759992379
22,363,Decrease,0.25,0.1,0.025118864315095794,0,0.2683524860003672
22,364,Control,0.0,0.1,0.015848931924611127,0,0.19270267300089472
22,365,Equal,0.1,0.1,0.015848931924611127,0,0.1768092220008839
22,366,Equal,0.1,0.1,0.01995262314968879,0,0.2680099089993746
22,367,Equal_null,0.1,0.1,0.01995262314968879,1,0.15809398500277894
22,368,Increase,0.1,0.25,0.02511886431509579,1,0.37727064399950905
22,369,Decrease,0.25,0.1,0.031622776601683784,1,0.36438307099888334
22,370,Equal,0.25,0.25,0.025118864315095794,1,0.38381974900039495
22,371,Control,0.0,0.1,0.01995262314968879,1,0.4935873249996803
22,372,Equal_null,0.25,0.25,0.06309573444801932,1,0.3536601360028726
22,373,Control,0.0,0.25,0.025118864315095794,1,0.3224301989976084
22,374,Control,0.0,0.1,0.015848931924611127,1,0.5344926380021207
22,375,Decrease,0.25,0.1,0.02511886431509579,1,0.4816206459981913
22,376,Decrease,0.25,0.1,0.01995262314968879,0,0.37083458400229574
22,377,Increase,0.1,0.25,0.01995262314968879,0,0.3901409110003442
22,378,Decrease,0.25,0.1,0.025118864315095794,1,0.4783919330002391
22,379,Equal_null,0.1,0.1,0.015848931924611127,1,0.4264292520019808
22,380,Control,0.0,0.25,0.01995262314968879,0,0.48395257700030925
22,381,Increase,0.1,0.25,0.025118864315095794,1,0.27980276599919307
22,382,Control,0.0,0.1,0.012589254117941666,0,0.641139960000146
22,383,Increase,0.1,0.25,0.01995262314968879,1,0.34830895499908365
22,384,Equal,0.25,0.25,0.01995262314968879,0,0.4660137959981512
22,385,Equal,0.1,0.1,0.025118864315095794,1,0.5017026249988703
22,386,Control,0.0,0.25,0.025118864315095794,1,0.3529147560002457
22,387,Control,0.0,0.25,0.01995262314968879,1,0.38744678200237104
22,388,Equal,0.25,0.25,0.025118864315095794,1,0.27108795999811264
22,389,Equal,0.1,0.1,0.01995262314968879,1,0.3352077170020493
22,390,Control_null,0.0,0.1,0.01995262314968879,1,0.45845762999670114
22,391,Control,0.0,0.1,0.015848931924611127,1,0.34681148500021663
22,392,Equal,0.1,0.1,0.015848931924611127,1,0.30204320600023493
22,393,Increase,0.1,0.25,0.015848931924611127,0,0.6162583980003546
22,394,Equal,0.25,0.25,0.01995262314968879,1,0.2828833629973815
22,395,Control,0.0,0.1,0.012589254117941666,0,0.5744526959970244
22,396,Decrease,0.25,0.1,0.01995262314968879,1,0.4015586789973895
22,397,Decrease,0.25,0.1,0.015848931924611127,0,0.44707897099942784
22,398,Control,0.0,0.25,0.015848931924611127,0,0.402222779001022
22,399,Equal,0.25,0.25,0.015848931924611127,1,0.2998440160008613
22,400,Decrease,0.25,0.1,0.01995262314968879,1,0.3754862579990004
22,401,Equal_null,0.1,0.1,0.012589254117941666,1,0.37040719599826843
22,402,Equal,0.1,0.1,0.012589254117941666,0,0.5153771830009646
22,403,Equal,0.1,0.1,0.015848931924611127,1,0.3348159619999933
22,404,Control,0.0,0.25,0.01995262314968879,0,0.47907039699930465
22,405,Increase,0.1,0.25,0.01995262314968879,1,0.28208977399845026
22,406,Decrease,0.25,0.1,0.015848931924611127,1,0.2931424070011417
22,407,Decrease,0.25,0.1,0.012589254117941666,0,0.48863382900162833
22,408,Equal,0.1,0.1,0.012589254117941666,0,0.5083489069984353
22,409,Control,0.0,0.25,0.025118864315095794,1,0.37492818100145087
22,410,Increase,0.1,0.25,0.015848931924611127,1,0.3247636079977383
22,411,Increase,0.1,0.25,0.012589254117941666,0,0.42596455499733565
22,412,Decrease,0.25,0.1,0.015848931924611127,1,0.4346161569992546
22,413,Control,0.0,0.25,0.01995262314968879,1,0.5495837750022474
22,414,Equal,0.1,0.1,0.015848931924611127,0,0.35297621200152207
22,415,Equal,0.1,0.1,0.01995262314968879,1,0.28997806800180115
22,416,Increase,0.1,0.25,0.015848931924611127,1,0.3974801030017261
22,417,Control,0.0,0.1,0.015848931924611127,0,0.6053657329975977
22,418,Control,0.0,0.1,0.01995262314968879,0,0.5540191809996031
22,419,Control,0.0,0.1,0.025118864315095794,1,0.3631704239996907
22,420,Decrease,0.25,0.1,0.012589254117941666,0,0.3990554140000313
22,421,Increase,0.1,0.25,0.012589254117941666,0,0.4581941280011961
22,422,Control_null,0.0,0.1,0.015848931924611127,1,0.7176649140019435
22,423,Equal_null,0.1,0.1,0.009999999999999995,1,0.3699342539985082
22,424,Equal,0.25,0.25,0.012589254117941666,0,0.3589527999974962
22,425,Increase,0.1,0.25,0.015848931924611127,0,0.3450215320008283
22,426,Control,0.0,0.25,0.015848931924611127,1,0.38027600499844993
22,427,Equal,0.25,0.25,0.015848931924611127,0,0.5086603650015604
22,428,Control,0.0,0.1,0.01995262314968879,0,0.6635630179989676
22,429,Decrease,0.25,0.1,0.015848931924611127,0,0.6827022199977364
22,430,Control_null,0.0,0.25,0.009999999999999995,1,0.388043455001025
22,431,Control,0.0,0.1,0.025118864315095794,1,0.3832811770007538
22,432,Increase,0.1,0.25,0.01995262314968879,0,0.306343582997215
22,433,Decrease,0.25,0.1,0.01995262314968879,0,0.7015458990026673
22,434,Decrease,0.25,0.1,0.025118864315095794,1,0.31277065700123785
22,435,Control,0.0,0.1,0.01995262314968879,1,0.38789567400090164
22,436,Decrease,0.25,0.1,0.01995262314968879,1,0.496848521001084
22,437,Control,0.0,0.25,0.012589254117941666,0,0.4054511119975359
22,438,Control,0.0,0.1,0.015848931924611127,0,0.3594999289998668
22,439,Equal_null,0.1,0.1,0.00794328234724281,1,0.40250780700080213
22,440,Control,0.0,0.25,0.015848931924611127,0,0.3528854130017862
22,441,Equal,0.25,0.25,0.01995262314968879,1,0.47600960999989184
22,442,Control,0.0,0.1,0.01995262314968879,1,0.44747320099850185
22,443,Decrease,0.25,0.1,0.015848931924611127,0,0.3512517810013378
22,444,Control,0.0,0.1,0.015848931924611127,0,0.6266134639990923
22,445,Equal,0.25,0.25,0.015848931924611127,0,0.22985102500024368
22,446,Equal_null,0.1,0.1,0.0063095734448019285,1,0.4488433080005052
22,447,Equal,0.1,0.1,0.015848931924611127,1,0.43728897600158234
22,448,Equal,0.25,0.25,0.01995262314968879,1,0.3194643159986299
22,449,Control,0.0,0.25,0.01995262314968879,0,0.3159105440026906
22,450,Equal_null,0.1,0.1,0.005011872336272719,1,0.5211204229999566
22,451,Equal,0.25,0.25,0.015848931924611127,0,0.2259216819984431
22,452,Control,0.0,0.25,0.025118864315095794,0,0.1570141509982932
22,453,Control,0.0,0.25,0.031622776601683784,1,0.2382406600008835
22,454,Control,0.0,0.1,0.01995262314968879,1,0.24941974700050196
22,455,Equal,0.1,0.1,0.012589254117941666,0,0.46923442899787915
22,456,Equal,0.25,0.25,0.01995262314968879,0,0.3166947000026994
22,457,Decrease,0.25,0.1,0.01995262314968879,1,0.27282819700121763
22,458,Decrease,0.25,0.1,0.015848931924611127,0,0.32422462300019106
22,459,Increase,0.1,0.25,0.025118864315095794,1,0.24704725999981747
22,460,Equal,0.1,0.1,0.015848931924611127,1,0.2504047830007039
22,461,Decrease,0.25,0.1,0.01995262314968879,0,0.2535863179982698
22,462,Control,0.0,0.25,0.02511886431509579,1,0.378229153000575
22,463,Equal,0.25,0.25,0.025118864315095794,1,0.41538282399778836
22,464,Control,0.0,0.1,0.015848931924611127,1,0.4645243550003215
22,465,Control,0.0,0.25,0.01995262314968879,1,0.57928165499834
22,466,Equal,0.1,0.1,0.012589254117941666,0,0.7807965009997133
22,467,Control,0.0,0.1,0.012589254117941666,1,0.4238886690000072
22,468,Control,0.0,0.25,0.015848931924611127,1,0.4271611620024487
22,469,Equal,0.1,0.1,0.015848931924611127,1,0.41223852800249006
22,470,Increase,0.1,0.25,0.01995262314968879,0,0.3673132359981537
22,471,Equal,0.25,0.25,0.01995262314968879,1,0.466555866998533
22,472,Control,0.0,0.1,0.009999999999999995,0,0.4137870340018708
22,473,Control,0.0,0.25,0.012589254117941666,0,0.4010763969999971
22,474,Control,0.0,0.25,0.015848931924611127,0,0.3015403419994982
22,475,Decrease,0.25,0.1,0.025118864315095794,0,0.29748304600070696
22,476,Equal,0.25,0.25,0.015848931924611127,1,0.4858985009996104
22,477,Equal,0.1,0.1,0.012589254117941666,0,0.550789001998055
22,478,Equal,0.25,0.25,0.012589254117941666,0,0.48094910199870355
22,479,Control,0.0,0.25,0.01995262314968879,1,0.41691080599775887
22,480,Control,0.0,0.25,0.015848931924611127,0,0.500843948997499
22,481,Increase,0.1,0.25,0.025118864315095794,0,99
22,482,Equal,0.1,0.1,0.015848931924611127,1,0.5052960599969083
22,483,Equal,0.1,0.1,0.012589254117941666,0,0.2678949119981553
22,484,Control,0.0,0.25,0.01995262314968879,0,0.700532992999797
22,485,Control_null,0.0,0.1,0.012589254117941666,1,0.3438341860019136
22,486,Control,0.0,0.25,0.025118864315095794,1,0.5137247099992237
22,487,Control,0.0,0.25,0.01995262314968879,0,0.6290729499996814
22,488,Decrease,0.25,0.1,0.031622776601683784,1,0.30529386499983957
22,489,Control,0.0,0.1,0.012589254117941666,0,0.40463904200078105
22,490,Equal_null,0.25,0.25,0.05011872336272722,1,0.584388975003094
22,491,Equal,0.1,0.1,0.015848931924611127,1,0.42056450500240317
22,492,Equal,0.25,0.25,0.015848931924611127,0,0.5337559030012926
22,493,Equal,0.1,0.1,0.012589254117941666,1,0.42488197700004093
22,494,Decrease,0.25,0.1,0.02511886431509579,1,0.3020146979979472
22,495,Decrease_null,0.25,0.1,0.031622776601683784,1,0.4214860120009689
22,496,Decrease,0.25,0.1,0.01995262314968879,0,0.49659775699910824
22,497,Increase,0.1,0.25,0.031622776601683784,1,0.31079795899859164
22,498,Control,0.0,0.25,0.025118864315095794,1,0.34716005000154837
22,499,Control_null,0.0,0.1,0.009999999999999995,1,0.3884544439970341
22,500,Equal,0.25,0.25,0.01995262314968879,1,0.3366500519987312
22,501,Equal,0.25,0.25,0.015848931924611127,1,0.40355952699974296
22,502,Control,0.0,0.1,0.015848931924611127,1,0.3908668250005576
22,503,Control,0.0,0.25,0.01995262314968879,1,0.39664819599784096
22,504,Decrease,0.25,0.1,0.025118864315095794,1,0.3374206549997325
22,505,Control,0.0,0.1,0.012589254117941666,1,0.39437543699750677
22,506,Control,0.0,0.1,0.009999999999999995,0,0.6856062360020587
22,507,Control,0.0,0.25,0.015848931924611127,1,0.28660139700150467
22,508,Increase,0.1,0.25,0.02511886431509579,1,0.30694599200069206
22,509,Increase,0.1,0.25,0.01995262314968879,1,0.3501677660024143
22,510,Control,0.0,0.25,0.012589254117941666,0,0.4464586340000096
22,511,Decrease,0.25,0.1,0.01995262314968879,1,0.24938171900066664
22,512,Equal,0.1,0.1,0.009999999999999995,0,0.41184623899971484
22,513,Control,0.0,0.25,0.015848931924611127,1,0.31192149900016375
22,514,Equal,0.1,0.1,0.012589254117941666,0,0.507206923000922
22,515,Control,0.0,0.1,0.012589254117941666,0,0.3744617679985822
22,516,Control,0.0,0.25,0.012589254117941666,0,0.4265551370008325
22,517,Increase,0.1,0.25,0.015848931924611127,0,0.39161048399910214
22,518,Control_null,0.0,0.1,0.00794328234724281,1,0.3539574120004545
22,519,Equal,0.25,0.25,0.012589254117941666,0,0.3256332279997878
22,520,Equal,0.25,0.25,0.015848931924611127,0,0.3649145960007445
22,521,Increase_null,0.1,0.25,0.015848931924611127,1,0.2973946439997235
22,522,Control,0.0,0.25,0.015848931924611127,0,0.2527106810011901
22,523,Control,0.0,0.25,0.01995262314968879,0,0.28490246499859495
22,524,Increase,0.1,0.25,0.01995262314968879,0,0.2555729939995217
22,525,Decrease,0.25,0.1,0.015848931924611127,1,0.6192681400025322
22,526,Decrease,0.25,0.1,0.012589254117941666,0,0.3502193720014475
22,527,Decrease,0.25,0.1,0.015848931924611127,1,0.29758835100074066
22,528,Control,0.0,0.25,0.025118864315095794,1,0.31723250100185396
22,529,Control,0.0,0.1,0.015848931924611127,1,0.4424192510014109
22,530,Decrease,0.25,0.1,0.012589254117941666,0,0.4794172649999382
22,531,Decrease,0.25,0.1,0.015848931924611127,1,0.3042871389989159
22,532,Equal,0.1,0.1,0.015848931924611127,0,0.5076820730027976
22,533,Increase,0.1,0.25,0.025118864315095794,1,0.29946983699846896
22,534,Increase,0.1,0.25,0.01995262314968879,0,0.38390024200271
22,535,Equal,0.1,0.1,0.01995262314968879,1,0.2670001940023212
22,536,Decrease,0.25,0.1,0.012589254117941666,0,0.3791623699980846
22,537,Decrease,0.25,0.1,0.015848931924611127,1,0.2782338990000426
22,538,Control,0.0,0.25,0.01995262314968879,1,0.45761838399994303
22,539,Equal_null,0.25,0.25,0.03981071705534971,1,0.39594007800042164
22,540,Increase,0.1,0.25,0.025118864315095794,1,0.27000316200064844
22,541,Equal,0.1,0.1,0.015848931924611127,0,0.5611182749998989
22,542,Decrease,0.25,0.1,0.012589254117941666,0,0.4296794919973763
22,543,Decrease,0.25,0.1,0.015848931924611127,1,0.3628978940032539
22,544,Decrease,0.25,0.1,0.012589254117941666,0,0.3634734799998114
22,545,Decrease,0.25,0.1,0.015848931924611127,1,0.27851404899774934
22,546,Equal,0.1,0.1,0.01995262314968879,0,0.3361048420010775
22,547,Decrease,0.25,0.1,0.012589254117941666,0,0.49012350700286333
22,548,Control,0.0,0.25,0.015848931924611127,0,0.32546648499919684
22,549,Control,0.0,0.1,0.012589254117941666,0,0.44656046599993715
22,550,Control,0.0,0.25,0.01995262314968879,1,0.32985610499963514
22,551,Decrease,0.25,0.1,0.015848931924611127,0,0.39706504000059795
22,552,Increase,0.1,0.25,0.01995262314968879,0,0.4003006989987625
22,553,Control,0.0,0.1,0.015848931924611127,1,0.4592461510001158
22,554,Equal,0.1,0.1,0.025118864315095794,1,0.3566008359994157
22,555,Equal_null,0.25,0.25,0.031622776601683784,1,0.4331640989985317
22,556,Control,0.0,0.1,0.012589254117941666,0,0.4146594029989501
22,557,Control,0.0,0.1,0.015848931924611127,0,0.6230429589995765
22,558,Control,0.0,0.1,0.01995262314968879,1,0.4433098119989154
22,559,Control,0.0,0.25,0.015848931924611127,0,0.3316817929990066
22,560,Control,0.0,0.25,0.01995262314968879,0,0.046631093999167206
22,561,Equal,0.1,0.1,0.01995262314968879,0,0.33817254599853186
22,562,Control_null,0.0,0.25,0.00794328234724281,1,0.4830290150021028
22,563,Control,0.0,0.25,0.025118864315095794,0,0.4783160320002935
22,564,Equal,0.1,0.1,0.025118864315095794,1,0.2893730030009465
22,565,Decrease,0.25,0.1,0.01995262314968879,0,0.4608370969981479
22,566,Control,0.0,0.25,0.031622776601683784,1,0.2558972359984182
22,567,Equal,0.25,0.25,0.01995262314968879,0,0.42701113899966003
22,568,Control,0.0,0.1,0.015848931924611127,1,0.38348540000151843
22,569,Equal,0.25,0.25,0.025118864315095794,1,0.34879527500015683
22,570,Increase,0.1,0.25,0.025118864315095794,1,0.2774880730030418
22,571,Increase,0.1,0.25,0.01995262314968879,1,0.3528306909975072
22,572,Decrease,0.25,0.1,0.025118864315095794,1,0.3050390320022416
22,573,Control,0.0,0.1,0.012589254117941666,1,0.43721957899833797
22,574,Control,0.0,0.25,0.02511886431509579,1,0.39229892299772473
22,575,Control,0.0,0.1,0.009999999999999995,0,0.4564136429980863
22,576,Increase,0.1,0.25,0.015848931924611127,1,0.340740347000974
22,577,Increase,0.1,0.25,0.012589254117941666,0,0.4479069029985112
22,578,Increase,0.1,0.25,0.015848931924611127,1,0.33128218699857825
22,579,Control,0.0,0.25,0.01995262314968879,1,0.3822738019989629
22,580,Increase,0.1,0.25,0.012589254117941666,0,0.42555268299838644
22,581,Decrease,0.25,0.1,0.01995262314968879,0,0.46978853000109666
22,582,Control,0.0,0.1,0.012589254117941666,0,0.4111855340015609
22,583,Increase_null,0.1,0.25,0.012589254117941666,0,0.1960377340001287
22,584,Control_null,0.0,0.25,0.0063095734448019285,1,0.2790887510018365
22,585,Equal,0.1,0.1,0.01995262314968879,0,0.3352045649990032
22,586,Increase,0.1,0.25,0.015848931924611127,1,0.5236595669994131
22,587,Increase_null,0.1,0.25,0.015848931924611127,1,0.39075586999751977
22,588,Equal,0.25,0.25,0.01995262314968879,0,0.1357399840017024
22,589,Decrease,0.25,0.1,0.025118864315095794,1,0.34597884799950407
22,590,Decrease,0.25,0.1,0.01995262314968879,0,0.1811782030017639
22,591,Increase,0.1,0.25,0.012589254117941666,0,0.18409089600027073
22,592,Control,0.0,0.1,0.015848931924611127,0,0.3400281319991336
22,593,Decrease,0.25,0.1,0.025118864315095794,0,0.27875666500040097
22,594,Control,0.0,0.25,0.015848931924611127,0,0.2918076089990791
22,595,Increase,0.1,0.25,0.015848931924611127,0,99
22,596,Equal,0.1,0.1,0.025118864315095794,1,0.34320353500152123
22,597,Equal,0.25,0.25,0.025118864315095794,1,0.38649251500100945
22,598,Control,0.0,0.25,0.01995262314968879,0,0.3548066170005768
22,599,Decrease,0.25,0.1,0.031622776601683784,1,0.30209054100123467
22,600,Control,0.0,0.25,0.025118864315095794,0,0.42814638699928764
22,601,Equal,0.1,0.1,0.01995262314968879,0,0.4207142199993541
22,602,Increase,0.1,0.25,0.01995262314968879,0,0.1931950100006361
22,603,Equal,0.1,0.1,0.025118864315095794,0,0.04442545599886216
22,604,Equal,0.1,0.1,0.031622776601683784,0,0.2717427859970485
22,605,Increase,0.1,0.25,0.025118864315095794,0,0.3307437639996351
22,606,Control,0.0,0.25,0.031622776601683784,1,0.31927775100120925
22,607,Decrease,0.25,0.1,0.02511886431509579,1,0.3702227230023709
22,608,Control,0.0,0.1,0.01995262314968879,0,0.389729973001522
22,609,Equal,0.25,0.25,0.01995262314968879,1,0.44959159800055204
22,610,Decrease,0.25,0.1,0.01995262314968879,0,0.5858131589993718
22,611,Control,0.0,0.25,0.02511886431509579,1,0.24226022100265254
22,612,Equal,0.1,0.1,0.03981071705534971,1,0.2511869289992319
22,613,Equal,0.1,0.1,0.031622776601683784,1,0.32636745200215955
22,614,Increase,0.1,0.25,0.031622776601683784,1,0.27201444099773653
22,615,Equal,0.1,0.1,0.02511886431509579,1,0.4835756870015757
22,616,Control,0.0,0.1,0.025118864315095794,1,0.3601035489991773
22,617,Control,0.0,0.1,0.01995262314968879,1,0.3952207769980305
22,618,Increase,0.1,0.25,0.02511886431509579,1,0.4304006019992812
22,619,Increase,0.1,0.25,0.01995262314968879,0,0.43345546500131604
22,620,Equal,0.25,0.25,0.015848931924611127,1,0.33375561000138987
22,621,Control,0.0,0.25,0.01995262314968879,1,0.4557063889988058
22,622,Increase,0.1,0.25,0.025118864315095794,1,0.3391392570010794
22,623,Equal,0.25,0.25,0.012589254117941666,0,0.3636444490002759
22,624,Equal,0.1,0.1,0.01995262314968879,0,0.6542417230011779
22,625,Control,0.0,0.25,0.015848931924611127,0,0.6877195529996243
22,626,Control,0.0,0.25,0.01995262314968879,0,0.33888830700016115
22,627,Increase,0.1,0.25,0.01995262314968879,0,0.3011158199988131
22,628,Control,0.0,0.25,0.025118864315095794,1,0.3200774819997605
22,629,Equal,0.25,0.25,0.015848931924611127,1,0.3391195930016693
22,630,Equal,0.1,0.1,0.025118864315095794,1,0.29434306799885235
22,631,Control,0.0,0.25,0.01995262314968879,1,0.4975263270025607
22,632,Decrease,0.25,0.1,0.025118864315095794,1,0.23901434000072186
22,633,Increase_null,0.1,0.25,0.012589254117941666,1,0.6273400030004268
22,634,Control_null,0.0,0.1,0.0063095734448019285,1,0.7320895160009968
22,635,Control_null,0.0,0.1,0.005011872336272719,1,0.3681209559981653
22,636,Control,0.0,0.1,0.015848931924611127,0,0.33759905499755405
22,637,Control,0.0,0.1,0.01995262314968879,0,0.3165619979990879
22,638,Control,0.0,0.1,0.025118864315095794,0,0.04462414299996453
22,639,Control,0.0,0.25,0.015848931924611127,1,0.4873356030002469
22,640,Equal,0.25,0.25,0.012589254117941666,0,0.34629321499960497
22,641,Increase,0.1,0.25,0.025118864315095794,0,0.26944176600227365
22,642,Equal,0.25,0.25,0.015848931924611127,0,0.47268025199809927
22,643,Control,0.0,0.1,0.031622776601683784,1,0.31605549300002167
22,644,Decrease,0.25,0.1,0.01995262314968879,0,0.35922455599938985
22,645,Control,0.0,0.1,0.02511886431509579,0,0.4821831050030596
22,646,Decrease,0.25,0.1,0.025118864315095794,1,0.43111168000177713
22,647,Equal,0.1,0.1,0.01995262314968879,0,0.3997816289993352
22,648,Increase,0.1,0.25,0.031622776601683784,1,0.22689838199949008
22,649,Equal,0.25,0.25,0.01995262314968879,1,0.283967360999668
22,650,Decrease,0.25,0.1,0.01995262314968879,1,0.29519344000073033
22,651,Increase,0.1,0.25,0.02511886431509579,1,0.2873850300020422
22,652,Decrease,0.25,0.1,0.015848931924611127,1,0.35456872999930056
22,653,Increase_null,0.1,0.25,0.009999999999999995,1,0.261673584998789
22,654,Equal,0.1,0.1,0.025118864315095794,1,0.33712551499775145
22,655,Control,0.0,0.25,0.012589254117941666,0,0.4361033210007008
22,656,Increase_null,0.1,0.25,0.00794328234724281,1,0.3754499480019149
22,657,Equal,0.1,0.1,0.01995262314968879,0,0.3238733449979918
22,658,Increase,0.1,0.25,0.01995262314968879,0,0.3442758010023681
22,659,Increase,0.1,0.25,0.025118864315095794,1,0.3082605679992412
22,660,Equal,0.25,0.25,0.015848931924611127,1,0.3490437219988962
22,661,Equal,0.25,0.25,0.012589254117941666,0,0.32013396300317254
22,662,Control,0.0,0.25,0.015848931924611127,1,0.28042684300089604
22,663,Control,0.0,0.25,0.012589254117941666,0,0.39554486999986693
22,664,Control,0.0,0.1,0.031622776601683784,1,0.2285337850007636
22,665,Equal,0.25,0.25,0.015848931924611127,0,0.44797721200302476
22,666,Increase,0.1,0.25,0.01995262314968879,1,0.539217411998834
22,667,Equal,0.1,0.1,0.025118864315095794,0,0.5184703699997044
22,668,Equal,0.25,0.25,0.01995262314968879,0,0.449697608997667
22,669,Control,0.0,0.25,0.015848931924611127,0,0.5615490769996541
22,670,Control,0.0,0.25,0.01995262314968879,0,0.26232878099835943
22,671,Decrease,0.25,0.1,0.012589254117941666,0,0.25136486400151625
22,672,Control,0.0,0.25,0.025118864315095794,0,0.34465833399735857
22,673,Increase,0.1,0.25,0.015848931924611127,1,0.3537970260003931
22,674,Equal,0.1,0.1,0.031622776601683784,1,0.2525427079999645
22,675,Decrease,0.25,0.1,0.015848931924611127,0,0.3809999019977113
22,676,Equal,0.25,0.25,0.025118864315095794,0,0.6643239149998408
22,677,Equal,0.1,0.1,0.02511886431509579,1,0.31310897799994564
22,678,Control,0.0,0.25,0.031622776601683784,1,0.3002990580025653
22,679,Equal,0.1,0.1,0.01995262314968879,1,0.35164342099960777
22,680,Control,0.0,0.25,0.02511886431509579,1,0.41089137099697837
22,681,Equal,0.25,0.25,0.031622776601683784,1,0.3820901879989833
22,682,Equal,0.25,0.25,0.02511886431509579,1,0.3532652819994837
22,683,Decrease,0.25,0.1,0.01995262314968879,1,0.4139178240002366
22,684,Decrease,0.25,0.1,0.015848931924611127,1,0.35494262399879517
22,685,Increase,0.1,0.25,0.012589254117941666,0,0.3268896240006143
22,686,Increase,0.1,0.25,0.015848931924611127,1,0.4478158909987542
22,687,Increase,0.1,0.25,0.012589254117941666,0,0.4271818199995323
22,688,Equal,0.1,0.1,0.015848931924611127,0,0.33943033999821637
22,689,Increase,0.1,0.25,0.015848931924611127,0,0.43061297399981413
22,690,Decrease,0.25,0.1,0.012589254117941666,0,0.3188426109991269
22,691,Equal_null,0.25,0.25,0.02511886431509579,1,0.25778236399855814
22,692,Control,0.0,0.25,0.01995262314968879,0,0.2931912989988632
22,693,Increase,0.1,0.25,0.01995262314968879,0,0.2802770020025491
22,694,Control,0.0,0.25,0.025118864315095794,1,0.39538994100075797
22,695,Equal,0.1,0.1,0.01995262314968879,1,0.34153808600240154
22,696,Control,0.0,0.1,0.02511886431509579,1,0.28187886199884815
22,697,Increase,0.1,0.25,0.025118864315095794,1,0.24736258299890324
22,698,Decrease,0.25,0.1,0.015848931924611127,0,0.3724062959990988
22,699,Equal,0.25,0.25,0.01995262314968879,1,0.2519215280008211
22,700,Equal,0.1,0.1,0.015848931924611127,1,0.3526130030004424
22,701,Decrease,0.25,0.1,0.01995262314968879,0,99
22,702,Equal,0.1,0.1,0.012589254117941666,0,0.3399156209998182
22,703,Decrease,0.25,0.1,0.025118864315095794,1,0.37327106399970944
22,704,Decrease,0.25,0.1,0.01995262314968879,1,0.48846697000044514
22,705,Control,0.0,0.25,0.01995262314968879,0,0.3716461820004042
22,706,Control,0.0,0.1,0.01995262314968879,0,0.3903575529984664
22,707,Control,0.0,0.1,0.025118864315095794,1,0.42545538599733845
22,708,Increase,0.1,0.25,0.01995262314968879,0,99
22,709,Control,0.0,0.1,0.01995262314968879,0,0.40185382300114725
22,710,Control,0.0,0.1,0.025118864315095794,1,0.3103036319989769
22,711,Decrease,0.25,0.1,0.015848931924611127,0,0.4505722419999074
22,712,Decrease,0.25,0.1,0.01995262314968879,0,0.3307541320027667
22,713,Equal,0.1,0.1,0.015848931924611127,0,0.343181881999044
22,714,Control,0.0,0.25,0.025118864315095794,1,0.351034259001608
22,715,Increase,0.1,0.25,0.025118864315095794,0,0.48217577100149356
22,716,Control,0.0,0.1,0.01995262314968879,0,0.49148389500260237
22,717,Equal,0.1,0.1,0.01995262314968879,1,0.4785004540026421
22,718,Increase,0.1,0.25,0.031622776601683784,1,0.2897264279999945
22,719,Equal,0.25,0.25,0.015848931924611127,0,0.35679639400041196
22,720,Increase,0.1,0.25,0.02511886431509579,1,0.4363521320010477
22,721,Increase,0.1,0.25,0.01995262314968879,0,0.2155883650011674
22,722,Control,0.0,0.25,0.01995262314968879,0,0.3119447719982418
22,723,Equal,0.25,0.25,0.01995262314968879,1,0.24289033699824358
22,724,Control,0.0,0.25,0.025118864315095794,0,0.1969903630015324
22,725,Decrease,0.25,0.1,0.025118864315095794,0,0.256313190999208
22,726,Equal,0.1,0.1,0.015848931924611127,1,0.3625607909998507
22,727,Equal,0.1,0.1,0.012589254117941666,0,0.34968568200201844
22,728,Increase,0.1,0.25,0.025118864315095794,1,0.4899177370025427
22,729,Decrease,0.25,0.1,0.031622776601683784,1,0.2619383810015279
22,730,Control,0.0,0.1,0.025118864315095794,1,0.2983779329988465
22,731,Increase,0.1,0.25,0.01995262314968879,1,0.340510563000862
22,732,Control_null,0.0,0.25,0.005011872336272719,1,0.41572545199960587
22,733,Equal,0.25,0.25,0.015848931924611127,0,0.439989439000783
22,734,Control,0.0,0.25,0.031622776601683784,1,0.2669210740023118
22,735,Control,0.0,0.1,0.01995262314968879,0,0.43630632299755234
22,736,Equal,0.25,0.25,0.01995262314968879,1,0.3274456270009978
22,737,Control,0.0,0.1,0.025118864315095794,0,0.35370455299926107
22,738,Equal,0.1,0.1,0.015848931924611127,1,0.3009379790019011
22,739,Increase,0.1,0.25,0.015848931924611127,1,0.3588973949990759
22,740,Decrease,0.25,0.1,0.02511886431509579,0,99
22,741,Control,0.0,0.1,0.031622776601683784,1,0.31013662700206623
22,742,Equal,0.25,0.25,0.015848931924611127,1,0.4268347060024098
22,743,Equal,0.1,0.1,0.012589254117941666,0,0.4312321700017492
22,744,Decrease,0.25,0.1,0.031622776601683784,1,0.2398586460003571
22,745,Increase,0.1,0.25,0.012589254117941666,0,0.33913781200317317
22,746,Equal,0.25,0.25,0.012589254117941666,0,0.3482958319982572
22,747,Control,0.0,0.1,0.02511886431509579,0,0.3355038299996522
22,748,Increase,0.1,0.25,0.015848931924611127,0,99
22,749,Equal_null,0.25,0.25,0.01995262314968879,1,0.45888146700235666
22,750,Decrease_null,0.25,0.1,0.02511886431509579,1,0.3807279499997094
22,751,Control,0.0,0.1,0.031622776601683784,1,0.2321326390010654
22,752,Control,0.0,0.1,0.02511886431509579,1,0.30058359100075904
22,753,Decrease_null,0.25,0.1,0.01995262314968879,1,0.3116620590008097
22,754,Equal,0.1,0.1,0.015848931924611127,0,0.7789353910011414
22,755,Control,0.0,0.1,0.01995262314968879,1,0.41600614200069685
22,756,Equal,0.25,0.25,0.015848931924611127,0,0.4762852199964982
22,757,Equal,0.25,0.25,0.01995262314968879,1,0.2705097649995878
22,758,Control,0.0,0.1,0.015848931924611127,0,0.30525485500038485
22,759,Increase,0.1,0.25,0.01995262314968879,0,0.506709763998515
22,760,Equal,0.1,0.1,0.01995262314968879,1,0.3580410279973876
22,761,Increase,0.1,0.25,0.025118864315095794,1,0.5900984550025896
22,762,Control,0.0,0.1,0.01995262314968879,1,0.4329264799998782
22,763,Control,0.0,0.1,0.015848931924611127,0,0.6605571520012745
22,764,Increase,0.1,0.25,0.01995262314968879,1,0.31974711200018646
22,765,Increase,0.1,0.25,0.015848931924611127,0,0.4510388829985459
22,766,Increase,0.1,0.25,0.01995262314968879,1,0.3582704990003549
22,767,Increase,0.1,0.25,0.015848931924611127,0,0.36233297800208675
22,768,Control,0.0,0.1,0.01995262314968879,1,0.38373235399922123
22,769,Equal,0.1,0.1,0.015848931924611127,0,0.4197164210017945
22,770,Control,0.0,0.1,0.015848931924611127,0,0.38071723399843904
22,771,Equal,0.25,0.25,0.015848931924611127,0,0.3036911559975124
22,772,Increase,0.1,0.25,0.01995262314968879,0,0.2879613529985363
22,773,Increase,0.1,0.25,0.025118864315095794,1,0.5004424020007718
22,774,Increase,0.1,0.25,0.01995262314968879,1,0.44460053599686944
22,775,Equal,0.25,0.25,0.01995262314968879,0,0.4155351149966009
22,776,Control,0.0,0.1,0.01995262314968879,0,0.4028874530013127
22,777,Equal,0.25,0.25,0.025118864315095794,0,0.3181167610018747
22,778,Increase,0.1,0.25,0.015848931924611127,0,0.17728956200153334
22,779,Control,0.0,0.1,0.025118864315095794,0,0.18047377000038978
22,780,Equal,0.25,0.25,0.031622776601683784,1,0.40902705199914635
22,781,Equal,0.25,0.25,0.02511886431509579,1,0.31639799600088736
22,782,Increase,0.1,0.25,0.01995262314968879,0,0.3050939169988851
22,783,Decrease_null,0.25,0.1,0.015848931924611127,1,0.44929150200186996
22,784,Equal_null,0.25,0.25,0.015848931924611127,1,0.33216588999857777
22,785,Equal,0.25,0.25,0.01995262314968879,0,0.19748746500044945
22,786,Control,0.0,0.1,0.031622776601683784,0,0.13681764799912344
22,787,Increase,0.1,0.25,0.025118864315095794,1,0.30497988000206533
22,788,Increase,0.1,0.25,0.01995262314968879,0,0.35570480700334883
22,789,Equal,0.1,0.1,0.01995262314968879,1,0.39139269500083174
22,790,Equal,0.25,0.25,0.025118864315095794,1,0.3625976020011876
22,791,Equal,0.1,0.1,0.015848931924611127,0,0.28581828299866174
22,792,Decrease_null,0.25,0.1,0.012589254117941666,1,0.3848657380003715
22,793,Control,0.0,0.1,0.03981071705534971,1,0.253499146001559
22,794,Equal,0.1,0.1,0.01995262314968879,0,0.45767498500208603
22,795,Equal,0.1,0.1,0.025118864315095794,1,0.33257231500101625
22,796,Equal,0.25,0.25,0.01995262314968879,0,99
22,797,Control,0.0,0.1,0.031622776601683784,1,0.2824997120005719
22,798,Equal,0.1,0.1,0.01995262314968879,0,0.4591543050009932
22,799,Decrease_null,0.25,0.1,0.009999999999999995,1,0.3909465620017727
22,800,Equal,0.1,0.1,0.025118864315095794,1,0.27903635899929213
22,801,Control,0.0,0.1,0.02511886431509579,1,0.3225683580021723
22,802,Equal,0.25,0.25,0.025118864315095794,1,0.38956094999957713
22,803,Equal_null,0.25,0.25,0.012589254117941666,1,0.376848482999776
22,804,Control,0.0,0.1,0.01995262314968879,0,0.37212071500107413
22,805,Equal,0.1,0.1,0.01995262314968879,1,0.47232379200067953
22,806,Equal,0.1,0.1,0.015848931924611127,0,0.2915484479999577
22,807,Equal,0.25,0.25,0.01995262314968879,0,0.4334005429991521
22,808,Equal,0.25,0.25,0.025118864315095794,1,0.40659060300095007
22,809,Equal,0.1,0.1,0.01995262314968879,0,0.31124489799913135
22,810,Equal,0.25,0.25,0.01995262314968879,0,0.28228641800160403
22,811,Equal,0.25,0.25,0.025118864315095794,1,0.21034172300278442
22,812,Equal,0.25,0.25,0.01995262314968879,0,0.2535805929983326
22,813,Equal,0.25,0.25,0.025118864315095794,1,0.2947554840029625
22,814,Equal,0.25,0.25,0.01995262314968879,1,0.33792557999913697
22,815,Equal_null,0.25,0.25,0.009999999999999995,1,0.34108930499860435
22,816,Equal,0.25,0.25,0.015848931924611127,0,0.3044188280000526
22,817,Equal,0.25,0.25,0.01995262314968879,1,0.5085763879978913
22,818,Equal,0.25,0.25,0.015848931924611127,1,0.2716664319996198
22,819,Equal,0.25,0.25,0.012589254117941666,1,0.3233787809986097
22,820,Equal,0.25,0.25,0.009999999999999995,0,0.5286575339996489
22,821,Equal,0.25,0.25,0.012589254117941666,0,0.3497856709982443
22,822,Equal,0.25,0.25,0.015848931924611127,0,0.3492634950016509
22,823,Equal,0.25,0.25,0.01995262314968879,1,0.4816549019997183
22,824,Equal,0.25,0.25,0.015848931924611127,0,0.33800002399948426
22,825,Equal,0.25,0.25,0.01995262314968879,0,0.24489216999791097
22,826,Equal,0.25,0.25,0.025118864315095794,1,0.3101714189979248
22,827,Equal,0.25,0.25,0.01995262314968879,1,0.5535884490018361
22,828,Equal,0.25,0.25,0.015848931924611127,0,0.3488105659998837
22,829,Equal,0.25,0.25,0.01995262314968879,1,0.25583516099868575
22,830,Equal,0.25,0.25,0.015848931924611127,0,0.194943789003446
22,831,Equal,0.25,0.25,0.01995262314968879,1,0.31107140599851846
22,832,Equal,0.25,0.25,0.015848931924611127,1,0.3625153729990416
22,833,Equal,0.25,0.25,0.012589254117941666,0,0.4001029139981256
22,834,Equal_null,0.25,0.25,0.00794328234724281,1,0.32526303499980713
22,835,Equal_null,0.25,0.25,0.0063095734448019285,1,0.3096837869998126
22,836,Decrease_null,0.25,0.1,0.00794328234724281,1,0.4161785649994272
22,837,Decrease_null,0.25,0.1,0.0063095734448019285,1,0.24123383900223416
22,838,Decrease_null,0.25,0.1,0.005011872336272719,1,0.10844556699885288
22,839,Equal_null,0.25,0.25,0.005011872336272719,1,0.2766077270025562
