Participant_Number,Trial_Number,Condition,FC_distal,FC_proximal,Target_Contrast,Correct_Response,Reaction_Time
16,0,Increase,0.1,0.25,0.1,1,0.5903146159980679
16,1,Control_null,0.0,0.1,0.1,1,0.490426093001588
16,2,Equal,0.25,0.25,0.1,1,0.42280155299886246
16,3,Decrease,0.25,0.1,0.1,1,0.3539767829970515
16,4,Equal,0.25,0.25,0.07943282347242815,1,0.34927332699953695
16,5,Control,0.0,0.1,0.1,1,0.37719823099905625
16,6,Equal,0.1,0.1,0.1,1,0.37745441800143453
16,7,Equal,0.1,0.1,0.07943282347242815,1,0.3152797399998235
16,8,Equal,0.25,0.25,0.06309573444801932,1,0.15684228200188954
16,9,Increase,0.1,0.25,0.07943282347242815,1,0.2398969300011231
16,10,Decrease_null,0.25,0.1,0.1,0,0.37805294300051173
16,11,Increase,0.1,0.25,0.06309573444801932,1,0.3730919650006399
16,12,Control,0.0,0.25,0.1,1,0.440590666999924
16,13,Equal,0.25,0.25,0.05011872336272722,1,0.3318178959998477
16,14,Control,0.0,0.25,0.07943282347242815,1,0.3292850020006881
16,15,Increase,0.1,0.25,0.05011872336272722,1,0.31617241600179113
16,16,Decrease,0.25,0.1,0.07943282347242815,1,0.2551735330016527
16,17,Decrease,0.25,0.1,0.06309573444801932,1,0.46618058500098414
16,18,Equal,0.1,0.1,0.06309573444801932,1,0.37361768299888354
16,19,Equal,0.25,0.25,0.03981071705534971,1,0.3428941069978464
16,20,Equal,0.1,0.1,0.05011872336272722,1,0.337928037999518
16,21,Increase_null,0.1,0.25,0.1,1,0.538040187999286
16,22,Equal,0.25,0.25,0.031622776601683784,1,0.3734704659982526
16,23,Equal,0.1,0.1,0.03981071705534971,1,0.1674242739973124
16,24,Control_null,0.0,0.1,0.07943282347242815,1,0.5077285709994612
16,25,Control,0.0,0.1,0.07943282347242815,1,0.4149891090019082
16,26,Control,0.0,0.1,0.06309573444801932,1,0.4900371889998496
16,27,Equal,0.1,0.1,0.031622776601683784,0,0.36524959899907117
16,28,Equal,0.1,0.1,0.03981071705534971,1,0.36160288399696583
16,29,Equal,0.1,0.1,0.031622776601683784,1,0.4835941270030162
16,30,Decrease_null,0.25,0.1,0.1,1,0.6238545160013018
16,31,Equal,0.25,0.25,0.02511886431509579,1,0.33895142400069744
16,32,Decrease,0.25,0.1,0.05011872336272722,1,0.27524108799843816
16,33,Increase,0.1,0.25,0.03981071705534971,1,0.3273959800026205
16,34,Increase,0.1,0.25,0.031622776601683784,1,0.5995322259987006
16,35,Control,0.0,0.1,0.05011872336272722,1,0.49045987600038643
16,36,Equal,0.25,0.25,0.01995262314968879,0,0.5246344320003118
16,37,Control,0.0,0.25,0.06309573444801932,1,0.3839911539980676
16,38,Decrease,0.25,0.1,0.03981071705534971,1,0.3073276530012663
16,39,Equal,0.25,0.25,0.025118864315095794,1,0.31145061400093255
16,40,Equal,0.25,0.25,0.01995262314968879,0,0.7638316219999979
16,41,Equal,0.25,0.25,0.025118864315095794,1,0.33694506299798377
16,42,Control,0.0,0.25,0.05011872336272722,1,0.6570483909999894
16,43,Equal,0.25,0.25,0.01995262314968879,1,0.37239455400049337
16,44,Equal,0.1,0.1,0.02511886431509579,0,0.6234555629998795
16,45,Equal,0.1,0.1,0.031622776601683784,1,0.279208258001745
16,46,Increase,0.1,0.25,0.02511886431509579,0,0.6280003490028321
16,47,Decrease_null,0.25,0.1,0.07943282347242815,1,0.468077262998122
16,48,Equal,0.1,0.1,0.02511886431509579,0,0.7508659640006954
16,49,Equal,0.1,0.1,0.031622776601683784,1,0.37735924200023874
16,50,Equal,0.1,0.1,0.02511886431509579,1,0.22944177300087176
16,51,Decrease,0.25,0.1,0.031622776601683784,1,0.4324769179984287
16,52,Decrease,0.25,0.1,0.02511886431509579,1,0.5880344420002075
16,53,Decrease,0.25,0.1,0.01995262314968879,0,0.5203276790016389
16,54,Equal,0.25,0.25,0.015848931924611127,1,0.5424315349991957
16,55,Control,0.0,0.1,0.03981071705534971,1,0.4316697180001938
16,56,Control,0.0,0.1,0.031622776601683784,1,0.53876004400081
16,57,Control,0.0,0.25,0.03981071705534971,1,0.5496785459981766
16,58,Increase,0.1,0.25,0.031622776601683784,1,0.4220654309974634
16,59,Decrease,0.25,0.1,0.025118864315095794,1,0.4172900350022246
16,60,Increase,0.1,0.25,0.02511886431509579,1,0.39309826899989275
16,61,Decrease,0.25,0.1,0.01995262314968879,1,0.35642078399905586
16,62,Equal,0.25,0.25,0.012589254117941666,1,0.2959297270026582
16,63,Control,0.0,0.1,0.02511886431509579,1,0.4506933580014447
16,64,Equal,0.25,0.25,0.009999999999999995,0,0.4781868520003627
16,65,Equal,0.25,0.25,0.012589254117941666,0,0.41835939600059646
16,66,Control_null,0.0,0.25,0.1,1,0.48678183300216915
16,67,Increase,0.1,0.25,0.01995262314968879,1,0.43513059500037343
16,68,Control,0.0,0.25,0.031622776601683784,1,0.2365367820020765
16,69,Decrease,0.25,0.1,0.015848931924611127,1,0.32812639199983096
16,70,Control,0.0,0.1,0.01995262314968879,1,0.2669582439993974
16,71,Decrease,0.25,0.1,0.012589254117941666,1,0.5884417960005521
16,72,Equal_null,0.25,0.25,0.1,0,0.5915297600004124
16,73,Equal,0.25,0.25,0.015848931924611127,0,0.43168319199685357
16,74,Control,0.0,0.1,0.015848931924611127,1,0.6590867900013109
16,75,Decrease,0.25,0.1,0.009999999999999995,0,0.47796010700039915
16,76,Equal,0.1,0.1,0.01995262314968879,1,0.3292336250015069
16,77,Increase,0.1,0.25,0.015848931924611127,0,0.4765970129992638
16,78,Increase,0.1,0.25,0.01995262314968879,1,0.3914721000001009
16,79,Equal,0.25,0.25,0.01995262314968879,1,0.44499413700032164
16,80,Equal,0.25,0.25,0.015848931924611127,0,0.7054868480008736
16,81,Equal,0.1,0.1,0.015848931924611127,1,0.883251448001829
16,82,Control,0.0,0.25,0.02511886431509579,1,0.694293895001465
16,83,Equal,0.1,0.1,0.012589254117941666,1,0.7057090289999906
16,84,Decrease,0.25,0.1,0.012589254117941666,0,0.4500318989994412
16,85,Equal,0.1,0.1,0.009999999999999995,0,0.660611544000858
16,86,Control,0.0,0.1,0.012589254117941666,0,0.5423714210010075
16,87,Decrease,0.25,0.1,0.015848931924611127,0,0.5695568910014117
16,88,Decrease,0.25,0.1,0.01995262314968879,1,0.7085117200003879
16,89,Decrease,0.25,0.1,0.015848931924611127,0,0.7667204609970213
16,90,Increase,0.1,0.25,0.015848931924611127,0,0.4670173929989687
16,91,Decrease,0.25,0.1,0.01995262314968879,0,0.23006675800206722
16,92,Decrease,0.25,0.1,0.025118864315095794,1,0.2744996639994497
16,93,Equal,0.25,0.25,0.01995262314968879,0,0.35090373899947735
16,94,Decrease,0.25,0.1,0.01995262314968879,1,0.46490101600284106
16,95,Decrease,0.25,0.1,0.015848931924611127,1,0.6038798949994089
16,96,Increase,0.1,0.25,0.01995262314968879,0,0.44376878999901237
16,97,Equal,0.1,0.1,0.012589254117941666,0,0.4551875409997592
16,98,Equal,0.25,0.25,0.025118864315095794,0,0.38748698999916087
16,99,Decrease_null,0.25,0.1,0.06309573444801932,0,0.27354004200242343
16,100,Increase,0.1,0.25,0.025118864315095794,1,0.285803388000204
16,101,Control,0.0,0.25,0.01995262314968879,0,0.6570655149989761
16,102,Equal,0.1,0.1,0.015848931924611127,1,0.38020593599867425
16,103,Control,0.0,0.1,0.015848931924611127,1,0.46349633100180654
16,104,Equal,0.25,0.25,0.031622776601683784,1,0.4188332609992358
16,105,Control_null,0.0,0.1,0.06309573444801932,1,0.6951640420011245
16,106,Decrease,0.25,0.1,0.012589254117941666,1,0.556355214001087
16,107,Equal,0.25,0.25,0.02511886431509579,0,0.5317977990016516
16,108,Decrease_null,0.25,0.1,0.07943282347242814,1,0.4872817989999021
16,109,Equal_null,0.1,0.1,0.1,1,0.2803555659993435
16,110,Increase,0.1,0.25,0.01995262314968879,1,0.41164956399734365
16,111,Equal,0.1,0.1,0.012589254117941666,0,0.5668228599970462
16,112,Decrease,0.25,0.1,0.009999999999999995,0,0.6081467570002133
16,113,Equal,0.1,0.1,0.015848931924611127,0,0.41930981099721976
16,114,Increase,0.1,0.25,0.015848931924611127,0,0.39820025299923145
16,115,Increase,0.1,0.25,0.01995262314968879,0,0.5935188319999725
16,116,Control,0.0,0.1,0.012589254117941666,0,0.5257586299994728
16,117,Control,0.0,0.25,0.025118864315095794,1,0.24905830500210868
16,118,Control,0.0,0.25,0.01995262314968879,1,0.3721723769995151
16,119,Control,0.0,0.1,0.015848931924611127,1,0.5525220179988537
16,120,Decrease,0.25,0.1,0.012589254117941666,0,0.5741053160018055
16,121,Equal_null,0.1,0.1,0.07943282347242815,1,0.5016067320029833
16,122,Control,0.0,0.25,0.015848931924611127,0,0.5609656050000922
16,123,Equal,0.1,0.1,0.01995262314968879,1,0.3930239330002223
16,124,Increase,0.1,0.25,0.025118864315095794,1,0.45250437899812823
16,125,Control,0.0,0.1,0.012589254117941666,1,0.5747694470010174
16,126,Increase,0.1,0.25,0.01995262314968879,0,0.6740214050005306
16,127,Control,0.0,0.25,0.01995262314968879,0,0.941460787998949
16,128,Decrease,0.25,0.1,0.015848931924611127,0,0.3283734920005372
16,129,Control,0.0,0.25,0.025118864315095794,0,0.571445641999162
16,130,Decrease,0.25,0.1,0.01995262314968879,1,0.46349802400072804
16,131,Equal,0.25,0.25,0.031622776601683784,1,0.36259885400068015
16,132,Equal,0.1,0.1,0.015848931924611127,0,0.5905025879983441
16,133,Decrease,0.25,0.1,0.015848931924611127,0,0.514490546000161
16,134,Decrease,0.25,0.1,0.01995262314968879,1,0.38635885599796893
16,135,Control,0.0,0.25,0.031622776601683784,1,0.6375741289994039
16,136,Decrease,0.25,0.1,0.015848931924611127,1,0.5895840689991019
16,137,Increase,0.1,0.25,0.025118864315095794,0,0.6167945540000801
16,138,Decrease,0.25,0.1,0.012589254117941666,1,0.5782560680017923
16,139,Equal,0.25,0.25,0.02511886431509579,1,0.42929258000003756
16,140,Equal_null,0.25,0.25,0.1,1,0.5855142710024666
16,141,Control,0.0,0.1,0.009999999999999995,0,0.8688438739991398
16,142,Decrease,0.25,0.1,0.009999999999999995,0,0.4715268740001193
16,143,Control_null,0.0,0.1,0.05011872336272722,1,0.5951791950028564
16,144,Control,0.0,0.1,0.012589254117941666,0,0.4153738079985487
16,145,Equal,0.1,0.1,0.01995262314968879,0,0.4095316790007928
16,146,Decrease_null,0.25,0.1,0.06309573444801932,1,0.494456740001624
16,147,Control,0.0,0.1,0.015848931924611127,1,0.44736012099747313
16,148,Control,0.0,0.25,0.02511886431509579,0,0.5229127450002125
16,149,Control,0.0,0.25,0.031622776601683784,1,0.36999690599986934
16,150,Control,0.0,0.1,0.012589254117941666,0,0.6054175739991479
16,151,Control,0.0,0.25,0.02511886431509579,1,0.4236367670018808
16,152,Control,0.0,0.25,0.01995262314968879,1,0.5703146310006559
16,153,Increase,0.1,0.25,0.031622776601683784,1,0.4219302499986952
16,154,Equal,0.25,0.25,0.01995262314968879,0,0.8170293430011952
16,155,Control_null,0.0,0.25,0.07943282347242815,1,0.5883801339987258
16,156,Control,0.0,0.1,0.015848931924611127,1,0.4614551609993214
16,157,Equal,0.25,0.25,0.025118864315095794,1,0.5456738339998992
16,158,Increase,0.1,0.25,0.02511886431509579,1,0.47481032999712625
16,159,Control,0.0,0.1,0.012589254117941666,1,0.399055779002083
16,160,Equal,0.25,0.25,0.01995262314968879,1,0.6791765589987335
16,161,Control,0.0,0.25,0.015848931924611127,1,0.37818115600020974
16,162,Control,0.0,0.1,0.009999999999999995,1,0.48257464800190064
16,163,Control,0.0,0.1,0.00794328234724281,0,0.45477192000180366
16,164,Decrease,0.25,0.1,0.012589254117941666,0,0.5370387149996532
16,165,Decrease,0.25,0.1,0.015848931924611127,1,0.41211687800023356
16,166,Equal,0.25,0.25,0.015848931924611127,0,1.0714895509991038
16,167,Equal,0.1,0.1,0.025118864315095794,1,0.6022103920004156
16,168,Decrease,0.25,0.1,0.012589254117941666,0,0.9976502440003969
16,169,Decrease,0.25,0.1,0.015848931924611127,1,0.6020971559992176
16,170,Control,0.0,0.25,0.012589254117941666,0,0.91015842699926
16,171,Increase,0.1,0.25,0.01995262314968879,0,0.6160141170003044
16,172,Equal,0.1,0.1,0.01995262314968879,1,0.5474208270024974
16,173,Equal,0.1,0.1,0.015848931924611127,0,0.6115927749997354
16,174,Equal_null,0.1,0.1,0.06309573444801932,1,0.4237163919970044
16,175,Control,0.0,0.1,0.009999999999999995,0,0.41589478899913956
16,176,Decrease,0.25,0.1,0.012589254117941666,1,0.5553549769974779
16,177,Increase,0.1,0.25,0.025118864315095794,1,0.5332054259997676
16,178,Equal_null,0.1,0.1,0.05011872336272722,1,0.648521481998614
16,179,Control,0.0,0.1,0.012589254117941666,0,0.7158872359977977
16,180,Equal,0.1,0.1,0.01995262314968879,0,0.5428000290012278
16,181,Decrease,0.25,0.1,0.009999999999999995,0,0.33801984200181323
16,182,Decrease,0.25,0.1,0.012589254117941666,1,0.7753793129995756
16,183,Control,0.0,0.1,0.015848931924611127,1,0.8368982000029064
16,184,Increase,0.1,0.25,0.01995262314968879,1,0.42975726099757594
16,185,Increase,0.1,0.25,0.015848931924611127,0,0.7209451540002192
16,186,Increase_null,0.1,0.25,0.07943282347242815,1,0.3771930010007054
16,187,Decrease,0.25,0.1,0.009999999999999995,0,0.5481914700030757
16,188,Control,0.0,0.25,0.015848931924611127,0,0.524525854998501
16,189,Equal,0.1,0.1,0.025118864315095794,1,0.5276105840021046
16,190,Equal,0.25,0.25,0.01995262314968879,0,1.050956334998773
16,191,Equal,0.1,0.1,0.01995262314968879,1,0.5419466349994764
16,192,Equal,0.1,0.1,0.015848931924611127,0,0.4570648520020768
16,193,Equal,0.1,0.1,0.01995262314968879,0,0.4521355040014896
16,194,Control,0.0,0.25,0.01995262314968879,1,0.640873903001193
16,195,Increase,0.1,0.25,0.01995262314968879,0,0.8049054259972763
16,196,Increase,0.1,0.25,0.025118864315095794,0,1.0487171739987389
16,197,Equal,0.1,0.1,0.025118864315095794,1,0.5380241710008704
16,198,Control,0.0,0.25,0.015848931924611127,1,0.6454350979984156
16,199,Decrease,0.25,0.1,0.012589254117941666,1,0.38138601500031655
16,200,Increase,0.1,0.25,0.031622776601683784,1,0.6645034630018927
16,201,Control,0.0,0.1,0.012589254117941666,0,0.5380946199984464
16,202,Decrease,0.25,0.1,0.009999999999999995,0,0.38907859200116945
16,203,Increase,0.1,0.25,0.02511886431509579,0,0.3521771539999463
16,204,Equal,0.1,0.1,0.01995262314968879,1,0.2674180809990503
16,205,Control,0.0,0.25,0.012589254117941666,0,0.3426464809999743
16,206,Equal,0.25,0.25,0.025118864315095794,1,0.4897449250020145
16,207,Increase,0.1,0.25,0.031622776601683784,1,0.5335702140000649
16,208,Equal,0.25,0.25,0.01995262314968879,0,0.5774562859987782
16,209,Increase,0.1,0.25,0.02511886431509579,1,0.35087823899812065
16,210,Equal,0.1,0.1,0.015848931924611127,0,0.5904966199996124
16,211,Equal,0.25,0.25,0.025118864315095794,1,0.2746075409995683
16,212,Equal,0.1,0.1,0.01995262314968879,0,0.5149280590012495
16,213,Control,0.0,0.25,0.015848931924611127,0,0.811074983997969
16,214,Equal,0.1,0.1,0.025118864315095794,1,0.47640070499983267
16,215,Control,0.0,0.25,0.01995262314968879,1,0.3195347410000977
16,216,Equal,0.1,0.1,0.01995262314968879,1,0.3787610839972331
16,217,Control,0.0,0.1,0.015848931924611127,1,0.5414515349984867
16,218,Equal,0.1,0.1,0.015848931924611127,1,0.6568781490022957
16,219,Equal,0.1,0.1,0.012589254117941666,0,0.3644524090013874
16,220,Control,0.0,0.25,0.015848931924611127,1,0.6086128200004168
16,221,Increase,0.1,0.25,0.01995262314968879,0,0.41406044399991515
16,222,Control,0.0,0.1,0.012589254117941666,0,0.5937655699999596
16,223,Control_null,0.0,0.1,0.03981071705534971,1,0.5311001549998764
16,224,Increase,0.1,0.25,0.025118864315095794,1,0.2781309929996496
16,225,Increase,0.1,0.25,0.01995262314968879,1,0.3342855549999513
16,226,Equal_null,0.1,0.1,0.03981071705534971,1,0.5132869289991504
16,227,Control,0.0,0.1,0.015848931924611127,1,0.38675358399996185
16,228,Increase,0.1,0.25,0.015848931924611127,0,0.7260839260015928
16,229,Increase,0.1,0.25,0.01995262314968879,1,0.5289834569994127
16,230,Equal,0.1,0.1,0.015848931924611127,0,0.41229194400148117
16,231,Increase,0.1,0.25,0.015848931924611127,1,0.4154428679976263
16,232,Decrease,0.25,0.1,0.012589254117941666,0,0.7637183269980596
16,233,Increase,0.1,0.25,0.012589254117941666,0,0.5669013279984938
16,234,Increase,0.1,0.25,0.015848931924611127,1,0.8442653370002517
16,235,Equal,0.1,0.1,0.01995262314968879,0,0.44162661799782654
16,236,Control_null,0.0,0.25,0.06309573444801932,1,0.5363548449968221
16,237,Control,0.0,0.25,0.012589254117941666,0,0.42751883599703433
16,238,Equal,0.25,0.25,0.01995262314968879,0,0.9247755780015723
16,239,Increase,0.1,0.25,0.012589254117941666,0,0.7196893780019309
16,240,Control,0.0,0.1,0.012589254117941666,0,0.4706520340005227
16,241,Control,0.0,0.1,0.015848931924611127,1,0.8498760879992915
16,242,Control,0.0,0.25,0.015848931924611127,1,1.1247110959993734
16,243,Equal_null,0.25,0.25,0.07943282347242815,1,0.43217546899904846
16,244,Control,0.0,0.25,0.012589254117941666,0,0.47525451600085944
16,245,Equal,0.25,0.25,0.025118864315095794,0,0.4142735109999194
16,246,Increase,0.1,0.25,0.015848931924611127,1,0.651829586000531
16,247,Control,0.0,0.1,0.012589254117941666,0,0.4412367080003605
16,248,Decrease,0.25,0.1,0.015848931924611127,0,0.4251515299984021
16,249,Equal,0.1,0.1,0.025118864315095794,1,0.14038643700041575
16,250,Increase,0.1,0.25,0.012589254117941666,0,0.5577231280003616
16,251,Equal,0.25,0.25,0.031622776601683784,1,0.648836708998715
16,252,Control,0.0,0.1,0.015848931924611127,0,0.5455594699997164
16,253,Decrease,0.25,0.1,0.01995262314968879,1,0.5568610650007031
16,254,Control,0.0,0.1,0.01995262314968879,1,0.6720450579996395
16,255,Increase,0.1,0.25,0.015848931924611127,1,0.6360168999999587
16,256,Control,0.0,0.1,0.015848931924611127,1,0.7426466079996317
16,257,Equal,0.1,0.1,0.01995262314968879,0,99
16,258,Decrease,0.25,0.1,0.015848931924611127,1,0.3735645389970159
16,259,Decrease,0.25,0.1,0.012589254117941666,0,0.7702475530022639
16,260,Equal,0.25,0.25,0.02511886431509579,1,0.494148204998055
16,261,Decrease,0.25,0.1,0.015848931924611127,1,0.5835908280023432
16,262,Equal,0.25,0.25,0.01995262314968879,1,0.4909177439985797
16,263,Increase,0.1,0.25,0.012589254117941666,0,0.4589126959981513
16,264,Equal,0.25,0.25,0.015848931924611127,0,0.6220289080010843
16,265,Control,0.0,0.25,0.015848931924611127,0,0.39137115799894673
16,266,Equal,0.1,0.1,0.025118864315095794,1,0.8917074279997905
16,267,Control,0.0,0.1,0.012589254117941666,1,0.6386359540010744
16,268,Decrease,0.25,0.1,0.012589254117941666,0,0.4579295549992821
16,269,Control,0.0,0.1,0.009999999999999995,0,1.0852149749989621
16,270,Decrease,0.25,0.1,0.015848931924611127,0,0.5360958839992236
16,271,Control,0.0,0.25,0.01995262314968879,0,0.809187976999965
16,272,Equal,0.25,0.25,0.01995262314968879,1,0.3886405779994675
16,273,Control,0.0,0.25,0.025118864315095794,1,0.5779473889997462
16,274,Control,0.0,0.1,0.012589254117941666,0,0.5056138719992305
16,275,Decrease,0.25,0.1,0.01995262314968879,1,0.5172780780012545
16,276,Increase_null,0.1,0.25,0.06309573444801932,1,0.5745234940004593
16,277,Control,0.0,0.1,0.015848931924611127,1,0.6737116199983575
16,278,Increase,0.1,0.25,0.015848931924611127,1,0.38658434100216255
16,279,Decrease,0.25,0.1,0.015848931924611127,0,0.43088047199853463
16,280,Equal,0.1,0.1,0.01995262314968879,0,0.4902071509968664
16,281,Equal,0.25,0.25,0.015848931924611127,0,0.7013205360017309
16,282,Equal,0.25,0.25,0.01995262314968879,1,0.6566123640004662
16,283,Control_null,0.0,0.1,0.031622776601683784,1,0.4847174329988775
16,284,Control,0.0,0.1,0.012589254117941666,0,0.607840385997406
16,285,Equal,0.25,0.25,0.015848931924611127,1,0.5791015290014911
16,286,Control,0.0,0.25,0.01995262314968879,1,0.41564267499779817
16,287,Control,0.0,0.25,0.015848931924611127,0,0.5833029909990728
16,288,Equal,0.25,0.25,0.012589254117941666,1,0.6746860639977967
16,289,Equal,0.25,0.25,0.009999999999999995,1,0.8666773540026043
16,290,Control_null,0.0,0.1,0.02511886431509579,1,0.4139957730003516
16,291,Decrease,0.25,0.1,0.01995262314968879,1,0.3918960010014416
16,292,Increase,0.1,0.25,0.012589254117941666,0,0.40454241299812566
16,293,Control,0.0,0.25,0.01995262314968879,0,0.45557383699997445
16,294,Equal,0.25,0.25,0.00794328234724281,0,0.8189273499992851
16,295,Control,0.0,0.25,0.025118864315095794,1,0.37505805999899167
16,296,Increase,0.1,0.25,0.015848931924611127,0,0.43430314299985184
16,297,Equal,0.25,0.25,0.009999999999999995,0,0.6519153810004354
16,298,Increase,0.1,0.25,0.01995262314968879,0,0.3763712879990635
16,299,Decrease,0.25,0.1,0.015848931924611127,1,0.8017260560009163
16,300,Control,0.0,0.1,0.015848931924611127,0,0.6449810089980019
16,301,Decrease,0.25,0.1,0.012589254117941666,0,0.5120497940006317
16,302,Increase,0.1,0.25,0.025118864315095794,1,0.37595156399765983
16,303,Control,0.0,0.1,0.01995262314968879,0,0.3473805249996076
16,304,Control,0.0,0.1,0.025118864315095794,1,0.2455641550004657
16,305,Control,0.0,0.1,0.01995262314968879,0,0.8247689470008481
16,306,Decrease,0.25,0.1,0.015848931924611127,1,0.4371579969993036
16,307,Equal,0.1,0.1,0.025118864315095794,0,0.34412880899981246
16,308,Equal,0.25,0.25,0.012589254117941666,0,0.6279374639998423
16,309,Equal,0.25,0.25,0.015848931924611127,1,0.40860122199956095
16,310,Decrease,0.25,0.1,0.012589254117941666,0,0.7549299269994663
16,311,Equal,0.25,0.25,0.012589254117941666,0,0.9900637979990279
16,312,Control,0.0,0.1,0.025118864315095794,1,0.6070906109998759
16,313,Equal,0.1,0.1,0.031622776601683784,1,0.5062295079987962
16,314,Decrease,0.25,0.1,0.015848931924611127,1,0.5573488829977578
16,315,Equal,0.25,0.25,0.015848931924611127,1,0.517543531001138
16,316,Equal,0.25,0.25,0.012589254117941666,0,0.3138477470020007
16,317,Decrease,0.25,0.1,0.012589254117941666,0,0.6121330139976635
16,318,Control,0.0,0.1,0.01995262314968879,1,0.5353619529996649
16,319,Increase,0.1,0.25,0.01995262314968879,1,0.6741803510012687
16,320,Increase,0.1,0.25,0.015848931924611127,0,0.36576353700002073
16,321,Equal,0.25,0.25,0.015848931924611127,0,0.37877259599918034
16,322,Increase,0.1,0.25,0.01995262314968879,1,0.4483300070023688
16,323,Decrease,0.25,0.1,0.015848931924611127,1,0.569195475000015
16,324,Equal,0.25,0.25,0.01995262314968879,1,0.5725124739983585
16,325,Equal,0.1,0.1,0.02511886431509579,1,0.5415121320002072
16,326,Control,0.0,0.1,0.015848931924611127,0,0.7526552950002952
16,327,Control,0.0,0.25,0.01995262314968879,0,0.7401277909993951
16,328,Increase,0.1,0.25,0.015848931924611127,0,0.620062207999581
16,329,Decrease,0.25,0.1,0.012589254117941666,0,0.8153088220024074
16,330,Control,0.0,0.1,0.01995262314968879,0,99
16,331,Increase,0.1,0.25,0.01995262314968879,0,0.79757453899947
16,332,Control,0.0,0.1,0.025118864315095794,1,0.6327172020028229
16,333,Equal,0.1,0.1,0.01995262314968879,0,99
16,334,Control,0.0,0.25,0.025118864315095794,0,99
16,335,Equal,0.25,0.25,0.015848931924611127,0,0.6294866960015497
16,336,Decrease,0.25,0.1,0.015848931924611127,0,0.719601879001857
16,337,Control,0.0,0.25,0.031622776601683784,1,0.3548932720004814
16,338,Control,0.0,0.1,0.01995262314968879,0,0.9070675390030374
16,339,Equal,0.25,0.25,0.01995262314968879,0,0.6857466280016524
16,340,Control,0.0,0.25,0.02511886431509579,1,0.6010475939983735
16,341,Decrease,0.25,0.1,0.01995262314968879,1,0.7865066500016837
16,342,Equal,0.1,0.1,0.025118864315095794,1,0.461606512999424
16,343,Control,0.0,0.1,0.025118864315095794,1,0.6248928819986759
16,344,Equal,0.25,0.25,0.025118864315095794,1,0.3162370979989646
16,345,Decrease,0.25,0.1,0.015848931924611127,1,0.31138969200037536
16,346,Equal,0.25,0.25,0.01995262314968879,1,0.2664491570030805
16,347,Control,0.0,0.25,0.01995262314968879,0,0.8002576770013548
16,348,Equal,0.1,0.1,0.01995262314968879,0,0.4358521510002902
16,349,Control,0.0,0.25,0.025118864315095794,1,0.7101696280005854
16,350,Control_null,0.0,0.1,0.01995262314968879,1,0.4653550350012665
16,351,Control,0.0,0.1,0.01995262314968879,0,0.5370959130013944
16,352,Control,0.0,0.25,0.01995262314968879,0,0.37219324100078666
16,353,Decrease,0.25,0.1,0.012589254117941666,0,0.42353698599981726
16,354,Control,0.0,0.25,0.025118864315095794,0,0.44098397199923056
16,355,Decrease,0.25,0.1,0.015848931924611127,1,0.5000863000022946
16,356,Equal,0.1,0.1,0.025118864315095794,1,0.39048304799871403
16,357,Increase,0.1,0.25,0.025118864315095794,1,0.4415119670011336
16,358,Decrease,0.25,0.1,0.012589254117941666,0,0.7097510950006836
16,359,Equal,0.25,0.25,0.015848931924611127,1,0.4088883610020275
16,360,Increase,0.1,0.25,0.01995262314968879,0,0.511438478002674
16,361,Increase,0.1,0.25,0.025118864315095794,0,0.3227762520000397
16,362,Control,0.0,0.25,0.031622776601683784,1,0.597970015998726
16,363,Increase,0.1,0.25,0.031622776601683784,1,0.6103609199999482
16,364,Equal,0.1,0.1,0.01995262314968879,0,0.41530287099885754
16,365,Equal,0.25,0.25,0.012589254117941666,0,0.6328151779998734
16,366,Control_null,0.0,0.1,0.015848931924611127,1,0.4198501290011336
16,367,Increase,0.1,0.25,0.02511886431509579,1,0.6629572559977532
16,368,Decrease,0.25,0.1,0.015848931924611127,0,0.3992843529995298
16,369,Equal,0.1,0.1,0.025118864315095794,1,0.6421185479994165
16,370,Equal,0.25,0.25,0.015848931924611127,0,0.5877025180016062
16,371,Decrease_null,0.25,0.1,0.05011872336272722,1,0.6465065640004468
16,372,Increase,0.1,0.25,0.01995262314968879,0,0.4580166659980023
16,373,Control,0.0,0.25,0.02511886431509579,1,0.5343556730003911
16,374,Decrease,0.25,0.1,0.01995262314968879,1,0.3452444110007491
16,375,Equal,0.25,0.25,0.01995262314968879,0,0.5323110970020934
16,376,Equal,0.1,0.1,0.01995262314968879,1,0.4812930839980254
16,377,Increase,0.1,0.25,0.025118864315095794,1,1.0054957280008239
16,378,Increase,0.1,0.25,0.01995262314968879,1,0.6574384179984918
16,379,Equal,0.1,0.1,0.015848931924611127,1,0.8810273520030023
16,380,Decrease,0.25,0.1,0.015848931924611127,0,0.7242337579991727
16,381,Increase,0.1,0.25,0.015848931924611127,0,0.4527623100002529
16,382,Equal,0.1,0.1,0.012589254117941666,0,0.8079768799980229
16,383,Increase,0.1,0.25,0.01995262314968879,0,0.6740658579983574
16,384,Control,0.0,0.1,0.025118864315095794,1,0.50923506899926
16,385,Control,0.0,0.1,0.01995262314968879,1,0.575493575001019
16,386,Decrease,0.25,0.1,0.01995262314968879,1,0.690800914002466
16,387,Equal,0.1,0.1,0.015848931924611127,0,0.4458828380011255
16,388,Control,0.0,0.1,0.015848931924611127,0,0.4646939710000879
16,389,Control,0.0,0.1,0.01995262314968879,1,0.41388380200078245
16,390,Increase,0.1,0.25,0.025118864315095794,0,0.5938125049979135
16,391,Equal,0.1,0.1,0.01995262314968879,0,0.585176013999444
16,392,Control,0.0,0.1,0.015848931924611127,1,0.4125789630015788
16,393,Equal,0.1,0.1,0.025118864315095794,1,0.5917934530007187
16,394,Control,0.0,0.1,0.012589254117941666,0,0.7931100370005879
16,395,Control,0.0,0.25,0.01995262314968879,1,0.612297851999756
16,396,Decrease,0.25,0.1,0.015848931924611127,1,0.5813682160005555
16,397,Decrease,0.25,0.1,0.012589254117941666,0,0.584759170000325
16,398,Control,0.0,0.25,0.015848931924611127,0,0.7720073980017332
16,399,Control,0.0,0.25,0.01995262314968879,1,0.5920226069974888
16,400,Equal,0.25,0.25,0.025118864315095794,1,0.6032665400016413
16,401,Equal,0.25,0.25,0.01995262314968879,1,0.5276222879983834
16,402,Decrease,0.25,0.1,0.015848931924611127,0,1.0493689100003394
16,403,Increase,0.1,0.25,0.031622776601683784,1,0.5430729330000759
16,404,Control,0.0,0.1,0.015848931924611127,0,0.663010504002159
16,405,Increase,0.1,0.25,0.02511886431509579,1,0.40227293300267775
16,406,Increase_null,0.1,0.25,0.05011872336272722,1,0.7722161760029849
16,407,Control,0.0,0.1,0.01995262314968879,0,0.589252507998026
16,408,Decrease,0.25,0.1,0.01995262314968879,1,0.5847939310006041
16,409,Decrease_null,0.25,0.1,0.03981071705534971,1,0.6509579890007444
16,410,Increase,0.1,0.25,0.01995262314968879,0,0.7982498119999946
16,411,Decrease,0.25,0.1,0.015848931924611127,0,0.4813141180020466
16,412,Increase,0.1,0.25,0.025118864315095794,1,0.5324900080013322
16,413,Control,0.0,0.1,0.025118864315095794,1,0.6246299660015211
16,414,Control,0.0,0.25,0.015848931924611127,1,0.5400682899999083
16,415,Equal,0.1,0.1,0.01995262314968879,0,0.49504950099799316
16,416,Increase,0.1,0.25,0.01995262314968879,1,0.49838232200272614
16,417,Increase,0.1,0.25,0.015848931924611127,1,0.5784722470016277
16,418,Control,0.0,0.1,0.01995262314968879,1,0.6056328469967411
16,419,Decrease,0.25,0.1,0.01995262314968879,1,0.9017940720004844
16,420,Decrease,0.25,0.1,0.015848931924611127,1,0.6731608529989899
16,421,Equal,0.25,0.25,0.015848931924611127,0,0.4280355180017068
16,422,Control,0.0,0.1,0.015848931924611127,0,0.726022359001945
16,423,Control,0.0,0.1,0.01995262314968879,0,0.5215264399994339
16,424,Equal,0.25,0.25,0.01995262314968879,0,0.9417020299988508
16,425,Increase,0.1,0.25,0.012589254117941666,0,0.4809557879998465
16,426,Increase,0.1,0.25,0.015848931924611127,1,0.8611224000014772
16,427,Equal,0.1,0.1,0.025118864315095794,1,0.5692518770010793
16,428,Control,0.0,0.25,0.012589254117941666,0,0.6905976529997133
16,429,Increase,0.1,0.25,0.012589254117941666,0,0.47066168200035463
16,430,Control,0.0,0.25,0.015848931924611127,0,0.7026540570004727
16,431,Control,0.0,0.25,0.01995262314968879,0,0.6098410599988711
16,432,Equal,0.1,0.1,0.01995262314968879,0,0.4741213310007879
16,433,Equal,0.1,0.1,0.025118864315095794,1,0.47042763399804244
16,434,Control,0.0,0.25,0.025118864315095794,1,0.4815941919987381
16,435,Control,0.0,0.25,0.01995262314968879,1,0.6517441630021494
16,436,Decrease,0.25,0.1,0.012589254117941666,0,0.6710247049995814
16,437,Equal,0.25,0.25,0.025118864315095794,1,0.9381938010010344
16,438,Equal,0.1,0.1,0.01995262314968879,1,0.5974192560024676
16,439,Increase_null,0.1,0.25,0.03981071705534971,1,0.50688941000044
16,440,Control_null,0.0,0.25,0.05011872336272722,1,0.6467580370008363
16,441,Decrease,0.25,0.1,0.015848931924611127,0,0.4479166240016639
16,442,Decrease,0.25,0.1,0.01995262314968879,0,0.7620336649997625
16,443,Increase,0.1,0.25,0.015848931924611127,0,0.5303000190033345
16,444,Equal,0.25,0.25,0.01995262314968879,0,0.5736040010015131
16,445,Equal_null,0.25,0.25,0.06309573444801932,1,0.45434396100245067
16,446,Equal,0.25,0.25,0.025118864315095794,0,0.5620140079990961
16,447,Control_null,0.0,0.1,0.012589254117941666,1,0.5734052689986129
16,448,Control,0.0,0.1,0.025118864315095794,1,0.34427023800162715
16,449,Equal,0.1,0.1,0.015848931924611127,1,0.6353003090007405
16,450,Control_null,0.0,0.25,0.03981071705534971,1,0.5026183760019194
16,451,Control,0.0,0.25,0.015848931924611127,0,0.5854664879989286
16,452,Control,0.0,0.25,0.01995262314968879,0,0.5513435440007015
16,453,Control,0.0,0.25,0.025118864315095794,0,0.4995200949997525
16,454,Equal,0.1,0.1,0.012589254117941666,0,0.44410407800023677
16,455,Equal,0.25,0.25,0.031622776601683784,1,0.43153573100062204
16,456,Decrease_null,0.25,0.1,0.031622776601683784,1,0.4956175830011489
16,457,Equal,0.25,0.25,0.02511886431509579,0,0.7388326039981621
16,458,Control,0.0,0.25,0.031622776601683784,1,0.36314126399884117
16,459,Equal,0.25,0.25,0.031622776601683784,1,0.48744488199736224
16,460,Equal,0.25,0.25,0.02511886431509579,1,1.0663796180015197
16,461,Control,0.0,0.1,0.01995262314968879,1,0.8456026650019339
16,462,Equal,0.25,0.25,0.01995262314968879,1,0.7209127499991155
16,463,Increase,0.1,0.25,0.01995262314968879,0,0.42822822499874746
16,464,Control,0.0,0.1,0.015848931924611127,0,0.7594359459981206
16,465,Decrease,0.25,0.1,0.025118864315095794,1,0.6040411009998934
16,466,Decrease,0.25,0.1,0.01995262314968879,1,0.48874368199903984
16,467,Control,0.0,0.1,0.01995262314968879,1,0.6579288920002
16,468,Equal,0.25,0.25,0.015848931924611127,0,0.7492216169994208
16,469,Control,0.0,0.1,0.015848931924611127,0,0.6131319199994323
16,470,Equal,0.25,0.25,0.01995262314968879,0,0.6252451549989928
16,471,Increase,0.1,0.25,0.025118864315095794,0,0.5295357940012764
16,472,Equal,0.25,0.25,0.025118864315095794,1,0.5091429220010468
16,473,Equal,0.1,0.1,0.015848931924611127,0,0.5438433470008022
16,474,Control,0.0,0.25,0.02511886431509579,1,0.4590687859999889
16,475,Equal,0.1,0.1,0.01995262314968879,1,0.5338336200002232
16,476,Control,0.0,0.1,0.01995262314968879,1,0.7375830729979498
16,477,Equal,0.25,0.25,0.01995262314968879,0,0.5417299820001062
16,478,Control,0.0,0.25,0.01995262314968879,0,0.9541002199985087
16,479,Increase,0.1,0.25,0.031622776601683784,1,0.49451250999845797
16,480,Equal,0.1,0.1,0.015848931924611127,0,0.38008536599954823
16,481,Increase,0.1,0.25,0.02511886431509579,0,0.737098606001382
16,482,Increase,0.1,0.25,0.031622776601683784,1,0.46620116899794084
16,483,Equal,0.25,0.25,0.025118864315095794,0,0.34009456299827434
16,484,Control,0.0,0.1,0.015848931924611127,1,0.3964511920021323
16,485,Equal,0.25,0.25,0.031622776601683784,1,0.3676143630000297
16,486,Control,0.0,0.1,0.012589254117941666,0,0.43385668200062355
16,487,Increase,0.1,0.25,0.02511886431509579,1,0.44397093299994594
16,488,Control,0.0,0.25,0.025118864315095794,1,0.3842343879987311
16,489,Equal,0.1,0.1,0.01995262314968879,1,0.32339333799973247
16,490,Control,0.0,0.1,0.015848931924611127,1,0.6865245150002011
16,491,Equal_null,0.25,0.25,0.05011872336272722,1,0.49717704100112314
16,492,Control,0.0,0.25,0.01995262314968879,0,0.5485998919975827
16,493,Equal,0.1,0.1,0.015848931924611127,0,0.42522281499987
16,494,Equal,0.1,0.1,0.01995262314968879,1,0.5979126169986557
16,495,Equal,0.1,0.1,0.015848931924611127,0,0.8465480669983663
16,496,Equal,0.25,0.25,0.02511886431509579,0,0.473790021998866
16,497,Control,0.0,0.25,0.025118864315095794,1,0.7458566499990411
16,498,Increase,0.1,0.25,0.01995262314968879,0,0.7570481699985976
16,499,Control,0.0,0.1,0.012589254117941666,0,0.5719875009999669
16,500,Control,0.0,0.25,0.01995262314968879,0,0.5114259980000497
16,501,Decrease,0.25,0.1,0.015848931924611127,0,0.29971229399961885
16,502,Decrease,0.25,0.1,0.01995262314968879,0,0.37487994600087404
16,503,Equal,0.25,0.25,0.031622776601683784,1,0.2819215749987052
16,504,Control,0.0,0.25,0.025118864315095794,1,0.5572774869979185
16,505,Control,0.0,0.25,0.01995262314968879,0,0.512362094999844
16,506,Increase,0.1,0.25,0.025118864315095794,0,0.5555214819978573
16,507,Equal,0.25,0.25,0.02511886431509579,1,0.7038665369982482
16,508,Decrease,0.25,0.1,0.025118864315095794,1,0.48868523400233244
16,509,Equal,0.25,0.25,0.01995262314968879,0,0.28416008700150996
16,510,Equal,0.25,0.25,0.025118864315095794,0,0.6601954750003642
16,511,Equal,0.1,0.1,0.01995262314968879,1,0.5994335760005924
16,512,Decrease,0.25,0.1,0.01995262314968879,0,1.1138564190005127
16,513,Control,0.0,0.25,0.025118864315095794,1,0.8605536409995693
16,514,Equal,0.1,0.1,0.015848931924611127,0,0.6958764139999403
16,515,Equal,0.1,0.1,0.01995262314968879,0,0.6113293999987945
16,516,Control,0.0,0.1,0.015848931924611127,0,0.5104860569990706
16,517,Control,0.0,0.25,0.01995262314968879,0,0.5855070500001602
16,518,Increase,0.1,0.25,0.031622776601683784,1,0.8206798449973576
16,519,Control,0.0,0.1,0.01995262314968879,0,0.6490834409996751
16,520,Control,0.0,0.1,0.025118864315095794,1,0.5962822969995614
16,521,Decrease,0.25,0.1,0.025118864315095794,1,0.6925826099977712
16,522,Control,0.0,0.25,0.025118864315095794,0,0.7755094620006275
16,523,Control,0.0,0.1,0.01995262314968879,1,0.7117269709997345
16,524,Equal,0.1,0.1,0.025118864315095794,1,1.0520328720012913
16,525,Equal,0.1,0.1,0.01995262314968879,1,0.4613232700030494
16,526,Control,0.0,0.1,0.015848931924611127,0,0.943983067998488
16,527,Equal,0.1,0.1,0.015848931924611127,1,0.8194526349980151
16,528,Decrease,0.25,0.1,0.01995262314968879,1,0.3597930229989288
16,529,Decrease,0.25,0.1,0.015848931924611127,1,0.49907025799984694
16,530,Equal,0.25,0.25,0.031622776601683784,1,0.4710321560014563
16,531,Equal,0.25,0.25,0.02511886431509579,1,0.5694427599992196
16,532,Equal,0.1,0.1,0.012589254117941666,0,0.5725373929999478
16,533,Increase,0.1,0.25,0.02511886431509579,1,0.45550834700043197
16,534,Control,0.0,0.1,0.01995262314968879,0,0.5117720150010427
16,535,Increase,0.1,0.25,0.01995262314968879,1,0.7230390959994111
16,536,Control,0.0,0.25,0.031622776601683784,1,0.5640161890005402
16,537,Control,0.0,0.1,0.025118864315095794,1,0.41511837000143714
16,538,Increase,0.1,0.25,0.015848931924611127,0,0.761732140003005
16,539,Decrease,0.25,0.1,0.012589254117941666,0,0.9808228559995769
16,540,Equal,0.25,0.25,0.01995262314968879,1,0.6386964289995376
16,541,Decrease_null,0.25,0.1,0.02511886431509579,1,0.8258998620003695
16,542,Equal,0.1,0.1,0.015848931924611127,0,0.5496768160010106
16,543,Equal_null,0.1,0.1,0.031622776601683784,1,0.43608723299985286
16,544,Equal,0.25,0.25,0.015848931924611127,0,0.8867481939996651
16,545,Equal,0.25,0.25,0.01995262314968879,1,0.4737866350005788
16,546,Increase,0.1,0.25,0.01995262314968879,1,0.4130871510024008
16,547,Equal_null,0.25,0.25,0.03981071705534971,1,1.0381089090005844
16,548,Equal,0.1,0.1,0.01995262314968879,1,0.6254002729983767
16,549,Control,0.0,0.1,0.01995262314968879,0,0.45764261199656175
16,550,Control,0.0,0.1,0.025118864315095794,0,0.30880774700199254
16,551,Equal,0.25,0.25,0.015848931924611127,0,0.7508745909981371
16,552,Decrease_null,0.25,0.1,0.01995262314968879,1,0.49012900100206025
16,553,Control,0.0,0.1,0.031622776601683784,1,0.7663481989984575
16,554,Control,0.0,0.25,0.02511886431509579,1,0.7135964359986247
16,555,Control,0.0,0.25,0.01995262314968879,0,0.39680697199946735
16,556,Equal,0.1,0.1,0.015848931924611127,0,0.4149756359984167
16,557,Control,0.0,0.1,0.02511886431509579,0,0.5381341270003759
16,558,Control,0.0,0.1,0.031622776601683784,1,0.4191705480006931
16,559,Decrease,0.25,0.1,0.015848931924611127,1,0.9824147370018181
16,560,Increase,0.1,0.25,0.015848931924611127,1,0.559775585999887
16,561,Equal,0.25,0.25,0.01995262314968879,0,0.41071126800306956
16,562,Decrease,0.25,0.1,0.012589254117941666,0,0.5156174939984339
16,563,Control,0.0,0.1,0.02511886431509579,0,0.5111164970003301
16,564,Control,0.0,0.25,0.025118864315095794,1,0.5854606539978704
16,565,Equal,0.1,0.1,0.01995262314968879,1,0.5407745579977927
16,566,Control,0.0,0.25,0.01995262314968879,0,0.5358128379994014
16,567,Increase,0.1,0.25,0.012589254117941666,0,0.8592508159999852
16,568,Equal,0.25,0.25,0.025118864315095794,0,0.6782095819980896
16,569,Control,0.0,0.25,0.025118864315095794,1,0.5637016380023852
16,570,Control,0.0,0.25,0.01995262314968879,0,0.5428477690002182
16,571,Increase,0.1,0.25,0.015848931924611127,0,0.4237737349976669
16,572,Equal,0.1,0.1,0.015848931924611127,0,0.4508989839996502
16,573,Equal_null,0.25,0.25,0.031622776601683784,1,0.5801075199997285
16,574,Control,0.0,0.25,0.025118864315095794,0,0.1673326879972592
16,575,Control,0.0,0.1,0.031622776601683784,1,0.8155023760009499
16,576,Equal,0.25,0.25,0.031622776601683784,0,0.47472741399906226
16,577,Control,0.0,0.1,0.02511886431509579,1,0.7575475529993128
16,578,Equal,0.25,0.25,0.03981071705534971,1,0.3288443380006356
16,579,Increase,0.1,0.25,0.01995262314968879,0,0.4681462959997589
16,580,Control,0.0,0.25,0.031622776601683784,1,0.9193126549980661
16,581,Equal,0.1,0.1,0.01995262314968879,0,0.4994761159978225
16,582,Equal,0.25,0.25,0.031622776601683784,0,0.4796977269979834
16,583,Decrease,0.25,0.1,0.015848931924611127,1,0.6691485109986388
16,584,Equal_null,0.1,0.1,0.02511886431509579,1,0.4530601070000557
16,585,Equal,0.1,0.1,0.025118864315095794,0,0.4000471879990073
16,586,Equal,0.1,0.1,0.031622776601683784,1,0.5535654260020237
16,587,Control,0.0,0.25,0.02511886431509579,0,0.3168397190020187
16,588,Equal,0.25,0.25,0.03981071705534971,1,0.5565111869982502
16,589,Control,0.0,0.25,0.031622776601683784,1,0.4158111770011601
16,590,Decrease,0.25,0.1,0.012589254117941666,0,0.5553013719982118
16,591,Equal,0.1,0.1,0.02511886431509579,0,0.4862657180019596
16,592,Equal,0.1,0.1,0.031622776601683784,1,0.4255502369996975
16,593,Decrease,0.25,0.1,0.015848931924611127,0,0.3898450509987015
16,594,Equal,0.1,0.1,0.02511886431509579,1,0.2490700900016236
16,595,Equal,0.25,0.25,0.031622776601683784,1,0.5979029390000505
16,596,Control,0.0,0.25,0.02511886431509579,0,0.41075798500241945
16,597,Control,0.0,0.1,0.01995262314968879,0,0.658837916002085
16,598,Increase,0.1,0.25,0.025118864315095794,1,0.9898452849993191
16,599,Decrease_null,0.25,0.1,0.015848931924611127,1,0.5499128330011445
16,600,Increase,0.1,0.25,0.01995262314968879,0,0.5327164139998786
16,601,Equal,0.1,0.1,0.01995262314968879,0,0.7609513070019602
16,602,Equal,0.1,0.1,0.025118864315095794,1,0.499293952001608
16,603,Decrease_null,0.25,0.1,0.012589254117941666,1,0.39936941099949763
16,604,Equal,0.25,0.25,0.02511886431509579,0,0.29022390200043446
16,605,Equal,0.25,0.25,0.031622776601683784,1,0.5576505509998242
16,606,Control,0.0,0.1,0.025118864315095794,0,0.2889053109975066
16,607,Increase,0.1,0.25,0.025118864315095794,0,0.3829914739981177
16,608,Decrease,0.25,0.1,0.01995262314968879,0,0.6142394119997334
16,609,Increase,0.1,0.25,0.031622776601683784,1,0.4183990490018914
16,610,Equal,0.25,0.25,0.02511886431509579,1,0.6267859150029835
16,611,Decrease,0.25,0.1,0.025118864315095794,1,0.4218617810001888
16,612,Equal_null,0.25,0.25,0.02511886431509579,1,0.854971608001506
16,613,Equal,0.25,0.25,0.01995262314968879,0,0.3619118550013809
16,614,Equal,0.1,0.1,0.01995262314968879,1,0.700335145000281
16,615,Control,0.0,0.25,0.031622776601683784,0,99
16,616,Control,0.0,0.25,0.03981071705534971,1,0.8267361690013786
16,617,Decrease,0.25,0.1,0.01995262314968879,0,0.33482343700234196
16,618,Control,0.0,0.25,0.031622776601683784,1,0.4501164770008472
16,619,Increase_null,0.1,0.25,0.031622776601683784,1,0.6932814769970719
16,620,Increase,0.1,0.25,0.02511886431509579,0,0.9855880219984101
16,621,Equal,0.1,0.1,0.015848931924611127,0,0.8587602360021265
16,622,Control,0.0,0.1,0.031622776601683784,0,0.5579951360014093
16,623,Increase_null,0.1,0.25,0.02511886431509579,1,0.3817270479994477
16,624,Decrease,0.25,0.1,0.025118864315095794,0,0.32097996499942383
16,625,Increase,0.1,0.25,0.031622776601683784,0,0.3001537730015116
16,626,Equal,0.25,0.25,0.025118864315095794,0,0.4628901059986674
16,627,Equal,0.25,0.25,0.031622776601683784,1,0.5059304569986125
16,628,Control,0.0,0.25,0.02511886431509579,0,0.5645120779990975
16,629,Decrease,0.25,0.1,0.031622776601683784,1,0.5600191140001698
16,630,Increase,0.1,0.25,0.03981071705534971,1,0.42845927300004405
16,631,Control,0.0,0.25,0.031622776601683784,1,0.6156888590012386
16,632,Control,0.0,0.25,0.02511886431509579,0,1.1468128039996373
16,633,Control,0.0,0.1,0.03981071705534971,1,0.5669519460025185
16,634,Control_null,0.0,0.25,0.031622776601683784,1,0.6071652720020211
16,635,Control,0.0,0.1,0.031622776601683784,1,0.4984200810031325
16,636,Control,0.0,0.25,0.031622776601683784,1,0.37028859199926956
16,637,Equal_null,0.25,0.25,0.01995262314968879,1,0.8216836600004171
16,638,Control,0.0,0.25,0.02511886431509579,0,0.5437644220000948
16,639,Increase,0.1,0.25,0.031622776601683784,1,0.38719784800196066
16,640,Increase,0.1,0.25,0.02511886431509579,0,0.40637927100033266
16,641,Control,0.0,0.1,0.02511886431509579,1,0.41743313500046497
16,642,Increase,0.1,0.25,0.031622776601683784,1,0.405687582999235
16,643,Decrease,0.25,0.1,0.02511886431509579,1,0.4727677689988923
16,644,Decrease_null,0.25,0.1,0.009999999999999995,1,0.45212797499698354
16,645,Equal,0.1,0.1,0.01995262314968879,0,0.5903973180029425
16,646,Decrease,0.25,0.1,0.01995262314968879,0,0.6182534510007827
16,647,Decrease,0.25,0.1,0.025118864315095794,1,0.49153976799789234
16,648,Control,0.0,0.1,0.01995262314968879,0,0.3746716479981842
16,649,Equal,0.1,0.1,0.025118864315095794,1,0.5990059129981091
16,650,Control,0.0,0.1,0.025118864315095794,1,0.8511438370005635
16,651,Equal,0.1,0.1,0.01995262314968879,0,99
16,652,Equal,0.25,0.25,0.02511886431509579,0,99
16,653,Decrease,0.25,0.1,0.01995262314968879,0,0.4108353379997425
16,654,Equal,0.25,0.25,0.031622776601683784,1,0.7430760059978638
16,655,Control,0.0,0.1,0.01995262314968879,1,0.4731012459997146
16,656,Equal,0.1,0.1,0.025118864315095794,1,0.3964646509994054
16,657,Equal,0.25,0.25,0.02511886431509579,1,0.40832775099988794
16,658,Increase,0.1,0.25,0.02511886431509579,0,0.482650558999012
16,659,Control,0.0,0.1,0.015848931924611127,0,0.7897400589972676
16,660,Equal,0.1,0.1,0.01995262314968879,0,0.7177101310007856
16,661,Equal,0.25,0.25,0.01995262314968879,0,0.7542632370023057
16,662,Control,0.0,0.1,0.01995262314968879,0,0.578481816999556
16,663,Equal_null,0.25,0.25,0.015848931924611127,1,0.5813405420012714
16,664,Equal,0.1,0.1,0.025118864315095794,1,0.39167495599758695
16,665,Increase,0.1,0.25,0.031622776601683784,1,0.6990856089978479
16,666,Increase,0.1,0.25,0.02511886431509579,0,99
16,667,Control_null,0.0,0.1,0.009999999999999995,1,0.4503018549985427
16,668,Decrease,0.25,0.1,0.025118864315095794,1,0.6455427740002051
16,669,Equal_null,0.25,0.25,0.012589254117941666,1,0.4086828869985766
16,670,Increase,0.1,0.25,0.031622776601683784,1,0.502016182999796
16,671,Increase,0.1,0.25,0.02511886431509579,1,0.9022275090028415
16,672,Control,0.0,0.1,0.025118864315095794,1,0.49024778199964203
16,673,Increase,0.1,0.25,0.01995262314968879,0,0.39456320400131517
16,674,Control,0.0,0.25,0.031622776601683784,1,0.3657376970004407
16,675,Increase,0.1,0.25,0.025118864315095794,1,0.6546749789995374
16,676,Control_null,0.0,0.25,0.02511886431509579,1,0.4415931980001915
16,677,Decrease,0.25,0.1,0.01995262314968879,1,0.6358956069998385
16,678,Increase,0.1,0.25,0.01995262314968879,0,0.5274345920006454
16,679,Decrease,0.25,0.1,0.015848931924611127,1,0.6917200679999951
16,680,Equal,0.25,0.25,0.025118864315095794,1,0.31890774999919813
16,681,Control,0.0,0.25,0.02511886431509579,1,0.37113569900247967
16,682,Control,0.0,0.25,0.01995262314968879,0,0.6303052390030643
16,683,Equal,0.1,0.1,0.01995262314968879,0,0.7397510830014653
16,684,Equal_null,0.1,0.1,0.01995262314968879,1,0.556495894001273
16,685,Control_null,0.0,0.25,0.01995262314968879,1,1.0237906679976732
16,686,Control,0.0,0.25,0.025118864315095794,1,0.4798921289984719
16,687,Equal,0.1,0.1,0.025118864315095794,0,0.6030152400016959
16,688,Control,0.0,0.1,0.01995262314968879,0,0.5163615429992205
16,689,Decrease,0.25,0.1,0.012589254117941666,0,0.47159051500057103
16,690,Control,0.0,0.1,0.025118864315095794,1,0.7777034079990699
16,691,Equal,0.1,0.1,0.031622776601683784,1,0.7807733439985896
16,692,Equal_null,0.1,0.1,0.015848931924611127,1,0.6408810370012361
16,693,Decrease,0.25,0.1,0.015848931924611127,1,0.5562749939999776
16,694,Equal_null,0.1,0.1,0.012589254117941666,1,0.5674466659984319
16,695,Increase,0.1,0.25,0.025118864315095794,0,99
16,696,Control,0.0,0.1,0.01995262314968879,1,0.6177226199979486
16,697,Equal,0.1,0.1,0.02511886431509579,0,0.5379444130012416
16,698,Control,0.0,0.25,0.01995262314968879,0,0.5008600239998486
16,699,Control,0.0,0.25,0.025118864315095794,1,0.9013317480021215
16,700,Control,0.0,0.25,0.01995262314968879,0,0.6326116470008856
16,701,Equal_null,0.25,0.25,0.009999999999999995,1,0.4735053520016663
16,702,Control,0.0,0.1,0.015848931924611127,1,0.41321347299890476
16,703,Control,0.0,0.25,0.025118864315095794,0,0.4642014710007061
16,704,Control_null,0.0,0.25,0.015848931924611127,1,0.46748903400293784
16,705,Increase,0.1,0.25,0.031622776601683784,1,0.5743753559981997
16,706,Equal,0.25,0.25,0.01995262314968879,1,0.4497573590015236
16,707,Equal,0.25,0.25,0.015848931924611127,0,0.31662890699954005
16,708,Control,0.0,0.1,0.012589254117941666,0,0.48143551299654064
16,709,Control,0.0,0.1,0.015848931924611127,0,0.4387267790007172
16,710,Control,0.0,0.25,0.031622776601683784,0,0.41535878500144463
16,711,Control,0.0,0.25,0.03981071705534971,1,0.666620840998803
16,712,Decrease,0.25,0.1,0.012589254117941666,0,0.6666456339989963
16,713,Control,0.0,0.1,0.01995262314968879,0,0.4056221920000098
16,714,Control,0.0,0.1,0.025118864315095794,1,0.5271145320002688
16,715,Decrease,0.25,0.1,0.015848931924611127,1,0.5304020520015911
16,716,Decrease,0.25,0.1,0.012589254117941666,0,0.4695571159973042
16,717,Increase,0.1,0.25,0.02511886431509579,1,0.6245783730009862
16,718,Control,0.0,0.1,0.01995262314968879,0,0.7798701300016546
16,719,Increase,0.1,0.25,0.01995262314968879,0,0.7668627409984765
16,720,Control,0.0,0.1,0.025118864315095794,1,0.46204778800165514
16,721,Control,0.0,0.25,0.031622776601683784,0,0.44119514699923457
16,722,Control,0.0,0.1,0.01995262314968879,1,0.5541837570017378
16,723,Increase,0.1,0.25,0.025118864315095794,0,0.5096360899988213
16,724,Equal,0.25,0.25,0.01995262314968879,0,0.6627903440021328
16,725,Equal,0.25,0.25,0.025118864315095794,0,0.5938598979992094
16,726,Decrease,0.25,0.1,0.015848931924611127,1,0.34119415399982245
16,727,Increase,0.1,0.25,0.031622776601683784,1,0.4001868480008852
16,728,Equal,0.1,0.1,0.031622776601683784,1,0.4254523679992417
16,729,Equal,0.1,0.1,0.02511886431509579,1,0.5486086689998046
16,730,Equal,0.1,0.1,0.01995262314968879,1,0.6476251050007704
16,731,Control,0.0,0.1,0.015848931924611127,1,0.6446154129989736
16,732,Equal_null,0.25,0.25,0.00794328234724281,1,0.48834676100159413
16,733,Decrease,0.25,0.1,0.012589254117941666,0,0.5774253700001282
16,734,Decrease,0.25,0.1,0.015848931924611127,0,0.516535066999495
16,735,Decrease,0.25,0.1,0.01995262314968879,0,0.47675448899826733
16,736,Control,0.0,0.1,0.012589254117941666,0,0.6159044960004394
16,737,Increase,0.1,0.25,0.02511886431509579,1,0.6100719139976718
16,738,Equal,0.1,0.1,0.015848931924611127,1,0.3016148990027432
16,739,Decrease,0.25,0.1,0.025118864315095794,0,0.6565951379998296
16,740,Control,0.0,0.25,0.03981071705534971,1,0.4118317830034357
16,741,Increase,0.1,0.25,0.01995262314968879,0,0.3590309460014396
16,742,Control,0.0,0.25,0.031622776601683784,1,0.7940281729970593
16,743,Increase,0.1,0.25,0.025118864315095794,1,0.3422230739997758
16,744,Equal_null,0.25,0.25,0.0063095734448019285,1,0.6883575930005463
16,745,Control,0.0,0.1,0.015848931924611127,0,0.6766118549967359
16,746,Equal,0.1,0.1,0.012589254117941666,0,0.6458396079979138
16,747,Increase,0.1,0.25,0.01995262314968879,1,0.6250830380013213
16,748,Equal,0.1,0.1,0.015848931924611127,1,0.8414917130030517
16,749,Equal,0.1,0.1,0.012589254117941666,0,0.548548277001828
16,750,Equal,0.1,0.1,0.015848931924611127,1,0.5026027089988929
16,751,Control,0.0,0.1,0.01995262314968879,1,0.4579486780021398
16,752,Control_null,0.0,0.1,0.00794328234724281,1,0.5327054110020981
16,753,Increase_null,0.1,0.25,0.01995262314968879,1,0.3599905130031402
16,754,Decrease,0.25,0.1,0.031622776601683784,1,0.4115578480013937
16,755,Control_null,0.0,0.1,0.0063095734448019285,1,0.5513116000001901
16,756,Equal,0.1,0.1,0.012589254117941666,1,0.5959292890001961
16,757,Increase,0.1,0.25,0.015848931924611127,1,0.5667452170018805
16,758,Decrease,0.25,0.1,0.02511886431509579,1,0.3550298449990805
16,759,Equal,0.25,0.25,0.031622776601683784,1,0.4112432940019062
16,760,Control,0.0,0.1,0.015848931924611127,0,0.3744246319984086
16,761,Decrease,0.25,0.1,0.01995262314968879,1,0.6066481760026363
16,762,Increase,0.1,0.25,0.012589254117941666,0,0.6588401499975589
16,763,Increase,0.1,0.25,0.015848931924611127,0,0.5720014420003281
16,764,Increase,0.1,0.25,0.01995262314968879,1,0.8483654580013535
16,765,Decrease,0.25,0.1,0.015848931924611127,1,0.37941558999955305
16,766,Equal,0.25,0.25,0.02511886431509579,1,0.7586637619970134
16,767,Control_null,0.0,0.1,0.005011872336272719,1,0.5297178539985907
16,768,Control_null,0.0,0.25,0.012589254117941666,1,0.565984913999273
16,769,Control,0.0,0.25,0.02511886431509579,1,0.5062583220023953
16,770,Decrease,0.25,0.1,0.012589254117941666,0,0.4123523700000078
16,771,Control,0.0,0.1,0.01995262314968879,0,0.4795456980027666
16,772,Control,0.0,0.1,0.025118864315095794,1,0.6796900389999792
16,773,Control,0.0,0.1,0.01995262314968879,0,0.7150000590008858
16,774,Equal,0.1,0.1,0.009999999999999995,0,0.5321955959989282
16,775,Control,0.0,0.1,0.025118864315095794,0,0.4313353619982081
16,776,Control,0.0,0.1,0.031622776601683784,1,0.5137085899987142
16,777,Equal,0.1,0.1,0.012589254117941666,0,0.5166490410010738
16,778,Control,0.0,0.25,0.01995262314968879,0,0.8557715560018551
16,779,Control,0.0,0.25,0.025118864315095794,0,0.585985942001571
16,780,Equal,0.1,0.1,0.015848931924611127,0,0.5253575169990654
16,781,Equal,0.1,0.1,0.01995262314968879,0,0.44282568199923844
16,782,Equal,0.1,0.1,0.025118864315095794,0,0.8216642510014935
16,783,Equal,0.1,0.1,0.031622776601683784,0,0.463487641998654
16,784,Decrease,0.25,0.1,0.015848931924611127,1,0.42704963400319684
16,785,Equal,0.25,0.25,0.01995262314968879,0,0.5053306080008042
16,786,Equal,0.1,0.1,0.03981071705534971,1,0.6121775409992551
16,787,Decrease,0.25,0.1,0.012589254117941666,0,0.69227089999913
16,788,Equal,0.25,0.25,0.025118864315095794,1,0.3195231940007943
16,789,Equal,0.25,0.25,0.01995262314968879,1,0.4270766410008946
16,790,Decrease,0.25,0.1,0.015848931924611127,0,0.3902232479995291
16,791,Decrease,0.25,0.1,0.01995262314968879,0,0.8572435169990058
16,792,Equal,0.1,0.1,0.031622776601683784,1,0.5164970999976504
16,793,Equal_null,0.1,0.1,0.009999999999999995,1,0.5274143900023773
16,794,Equal,0.25,0.25,0.015848931924611127,1,0.5480694270008826
16,795,Control,0.0,0.25,0.031622776601683784,0,0.4346710610006994
16,796,Equal,0.25,0.25,0.012589254117941666,0,0.5060971739985689
16,797,Equal,0.1,0.1,0.02511886431509579,0,0.33449191600084305
16,798,Equal,0.25,0.25,0.015848931924611127,0,0.4703134000010323
16,799,Control,0.0,0.25,0.03981071705534971,1,0.44992857000033837
16,800,Control,0.0,0.1,0.02511886431509579,0,0.2669815480003308
16,801,Equal_null,0.1,0.1,0.00794328234724281,1,0.44613487099923077
16,802,Control,0.0,0.1,0.031622776601683784,1,0.35209422200205154
16,803,Control,0.0,0.1,0.02511886431509579,1,0.43562987300174427
16,804,Equal,0.25,0.25,0.01995262314968879,0,0.49470626300171716
16,805,Control,0.0,0.25,0.031622776601683784,1,0.4179395739993197
16,806,Equal,0.25,0.25,0.025118864315095794,1,0.4531413580007211
16,807,Control,0.0,0.1,0.01995262314968879,0,0.7471057149996341
16,808,Equal,0.25,0.25,0.01995262314968879,0,0.6228386149996368
16,809,Equal,0.25,0.25,0.025118864315095794,1,0.5913783769974543
16,810,Equal,0.1,0.1,0.031622776601683784,1,0.41868653800338507
16,811,Equal,0.25,0.25,0.01995262314968879,0,0.5722107019973919
16,812,Control_null,0.0,0.25,0.009999999999999995,1,0.5831245480003417
16,813,Control,0.0,0.25,0.02511886431509579,0,0.8072760900031426
16,814,Control,0.0,0.25,0.031622776601683784,1,0.562696959997993
16,815,Increase_null,0.1,0.25,0.015848931924611127,1,0.4936646860005567
16,816,Control,0.0,0.25,0.02511886431509579,0,0.7049124630029837
16,817,Control,0.0,0.25,0.031622776601683784,1,0.41203829200094333
16,818,Increase_null,0.1,0.25,0.012589254117941666,1,0.6243853030027822
16,819,Control,0.0,0.25,0.02511886431509579,1,0.4195214089995716
16,820,Control,0.0,0.25,0.01995262314968879,0,0.5838029049991746
16,821,Control,0.0,0.25,0.025118864315095794,1,0.5492480089997116
16,822,Control,0.0,0.25,0.01995262314968879,1,0.45302494700081297
16,823,Control,0.0,0.25,0.015848931924611127,0,0.36122141200030455
16,824,Control,0.0,0.25,0.01995262314968879,0,0.457650543001364
16,825,Control,0.0,0.25,0.025118864315095794,1,0.3164933159969223
16,826,Control,0.0,0.25,0.01995262314968879,1,0.44579279699973995
16,827,Control,0.0,0.25,0.015848931924611127,0,0.6091756290006742
16,828,Control,0.0,0.25,0.01995262314968879,0,0.5003459640029178
16,829,Control,0.0,0.25,0.025118864315095794,1,0.43134446399926674
16,830,Control,0.0,0.25,0.01995262314968879,0,0.6659261730019352
16,831,Control_null,0.0,0.25,0.00794328234724281,1,0.6286193699997966
16,832,Equal_null,0.1,0.1,0.0063095734448019285,1,0.5359901219999301
16,833,Equal_null,0.1,0.1,0.005011872336272719,1,0.4535023220014409
16,834,Increase_null,0.1,0.25,0.009999999999999995,1,0.49079218699989724
16,835,Increase_null,0.1,0.25,0.00794328234724281,1,0.4585175499996694
16,836,Control_null,0.0,0.25,0.0063095734448019285,1,0.6536626640008762
16,837,Increase_null,0.1,0.25,0.0063095734448019285,1,0.5029432800001814
16,838,Increase_null,0.1,0.25,0.005011872336272719,1,0.5620325990021229
16,839,Control_null,0.0,0.25,0.005011872336272719,1,0.5783177729972522
