Participant_Number,Trial_Number,Condition,FC_distal,FC_proximal,Target_Contrast,Correct_Response,Reaction_Time
21,0,Equal,0.25,0.25,0.1,1,0.7003282100013166
21,1,Increase,0.1,0.25,0.1,1,0.6714521260000765
21,2,Equal,0.1,0.1,0.1,1,0.502160907999496
21,3,Control,0.0,0.25,0.1,1,0.4308237770019332
21,4,Equal_null,0.1,0.1,0.1,1,0.47396197600028245
21,5,Equal,0.1,0.1,0.07943282347242815,1,0.5471513789998426
21,6,Equal,0.25,0.25,0.07943282347242815,1,0.44643449100112775
21,7,Control,0.0,0.25,0.07943282347242815,1,0.4068213629980164
21,8,Control,0.0,0.25,0.06309573444801932,1,0.47391371600315324
21,9,Control,0.0,0.25,0.05011872336272722,1,0.49977424100143253
21,10,Increase,0.1,0.25,0.07943282347242815,1,0.4388156219974917
21,11,Control,0.0,0.25,0.03981071705534971,1,0.5942814609989
21,12,Control,0.0,0.1,0.1,1,0.5255979050016322
21,13,Control_null,0.0,0.1,0.1,1,0.48976584800038836
21,14,Equal,0.25,0.25,0.06309573444801932,1,0.47014371899786056
21,15,Decrease,0.25,0.1,0.1,0,0.5386139799993543
21,16,Control,0.0,0.1,0.07943282347242815,1,0.5790022420005698
21,17,Control,0.0,0.1,0.06309573444801932,1,0.47029996999845025
21,18,Control_null,0.0,0.1,0.07943282347242815,1,0.4785144150009728
21,19,Equal,0.1,0.1,0.06309573444801932,1,0.5948645790012961
21,20,Equal,0.25,0.25,0.05011872336272722,1,0.6430909490009071
21,21,Equal,0.1,0.1,0.05011872336272722,1,0.4942742610001005
21,22,Equal,0.1,0.1,0.03981071705534971,1,0.5762500729979365
21,23,Increase,0.1,0.25,0.06309573444801932,1,0.5166011239998625
21,24,Increase,0.1,0.25,0.05011872336272722,1,0.4237387659995875
21,25,Control,0.0,0.1,0.05011872336272722,1,0.5868929080024827
21,26,Equal,0.1,0.1,0.031622776601683784,1,0.703117804001522
21,27,Decrease,0.25,0.1,0.1,1,0.5326416770003561
21,28,Increase,0.1,0.25,0.03981071705534971,1,0.5370361729983415
21,29,Increase,0.1,0.25,0.031622776601683784,1,0.48141234499780694
21,30,Equal,0.1,0.1,0.02511886431509579,1,0.5649996079991979
21,31,Equal,0.25,0.25,0.03981071705534971,1,0.5099987829999009
21,32,Control,0.0,0.1,0.03981071705534971,1,0.5530581880011596
21,33,Equal,0.1,0.1,0.01995262314968879,1,0.5694783449980605
21,34,Control_null,0.0,0.25,0.1,1,0.5486028300001635
21,35,Decrease,0.25,0.1,0.07943282347242815,1,0.5355598579990328
21,36,Equal_null,0.1,0.1,0.07943282347242815,1,0.6349538979993667
21,37,Equal,0.25,0.25,0.031622776601683784,1,0.5501746119989548
21,38,Increase,0.1,0.25,0.02511886431509579,1,0.704440995999903
21,39,Increase,0.1,0.25,0.01995262314968879,1,0.5892393720023392
21,40,Equal,0.1,0.1,0.015848931924611127,0,0.5606000230000063
21,41,Control,0.0,0.1,0.031622776601683784,1,0.6221307439991506
21,42,Decrease,0.25,0.1,0.06309573444801932,1,0.4792141520010773
21,43,Equal_null,0.25,0.25,0.1,0,0.5211979970008542
21,44,Control,0.0,0.25,0.031622776601683784,1,0.5694863739990979
21,45,Control,0.0,0.1,0.02511886431509579,1,0.6295507840004575
21,46,Equal_null,0.25,0.25,0.1,1,0.6925055960018653
21,47,Control,0.0,0.1,0.01995262314968879,1,0.6489417529992352
21,48,Equal,0.25,0.25,0.02511886431509579,1,0.539242615999683
21,49,Control,0.0,0.1,0.015848931924611127,1,0.6543834279982548
21,50,Decrease_null,0.25,0.1,0.1,1,0.6256980229991314
21,51,Increase_null,0.1,0.25,0.1,1,0.5816638840005908
21,52,Increase,0.1,0.25,0.015848931924611127,1,0.49779248499908135
21,53,Decrease,0.25,0.1,0.05011872336272722,1,0.5182216960020014
21,54,Control,0.0,0.25,0.02511886431509579,1,0.571791927999584
21,55,Equal,0.1,0.1,0.01995262314968879,1,0.48454865899839206
21,56,Decrease,0.25,0.1,0.03981071705534971,1,0.5674804789996415
21,57,Equal,0.25,0.25,0.01995262314968879,1,0.5768384940020042
21,58,Control_null,0.0,0.1,0.06309573444801932,1,0.5879136789990298
21,59,Decrease,0.25,0.1,0.031622776601683784,1,0.4923054509999929
21,60,Equal,0.25,0.25,0.015848931924611127,1,0.5914909089988214
21,61,Increase,0.1,0.25,0.012589254117941666,1,0.6424422470008722
21,62,Control,0.0,0.1,0.012589254117941666,1,0.5815523259989277
21,63,Equal,0.1,0.1,0.015848931924611127,1,0.7528962319993298
21,64,Equal,0.1,0.1,0.012589254117941666,0,0.70828446899759
21,65,Decrease,0.25,0.1,0.02511886431509579,1,0.5365656379981374
21,66,Control,0.0,0.25,0.01995262314968879,1,0.6534145890000218
21,67,Decrease,0.25,0.1,0.01995262314968879,1,0.6820023099971877
21,68,Increase,0.1,0.25,0.009999999999999995,1,0.7068347389977134
21,69,Control,0.0,0.25,0.015848931924611127,1,0.6619339909993869
21,70,Increase,0.1,0.25,0.00794328234724281,0,0.5672029230008775
21,71,Increase,0.1,0.25,0.009999999999999995,0,0.5945373549984652
21,72,Control,0.0,0.1,0.009999999999999995,0,0.5946115209990239
21,73,Increase,0.1,0.25,0.012589254117941666,1,0.6136690080020344
21,74,Control,0.0,0.25,0.012589254117941666,0,0.7528014329982398
21,75,Increase,0.1,0.25,0.009999999999999995,0,0.8363041119991976
21,76,Equal,0.1,0.1,0.015848931924611127,1,0.5445505539973965
21,77,Decrease,0.25,0.1,0.015848931924611127,1,0.6036627860012231
21,78,Decrease,0.25,0.1,0.012589254117941666,0,0.8632510759998695
21,79,Control,0.0,0.25,0.015848931924611127,1,0.5401647550024791
21,80,Control,0.0,0.1,0.012589254117941666,1,0.6780664739999338
21,81,Equal,0.25,0.25,0.012589254117941666,0,0.5219420299981721
21,82,Control,0.0,0.1,0.009999999999999995,0,0.6134942589997081
21,83,Equal,0.1,0.1,0.012589254117941666,0,0.6138090529966576
21,84,Decrease,0.25,0.1,0.015848931924611127,1,0.6327801490006095
21,85,Decrease_null,0.25,0.1,0.07943282347242815,1,0.6658979280000494
21,86,Decrease,0.25,0.1,0.012589254117941666,0,0.724982847001229
21,87,Equal_null,0.25,0.25,0.07943282347242815,1,0.7204420809976
21,88,Increase,0.1,0.25,0.012589254117941666,1,0.7556313089989999
21,89,Decrease,0.25,0.1,0.015848931924611127,1,0.7277995879994705
21,90,Control,0.0,0.1,0.012589254117941666,1,0.6909685850005189
21,91,Control,0.0,0.1,0.009999999999999995,1,0.6547121670009801
21,92,Equal,0.25,0.25,0.015848931924611127,1,0.9318491599988192
21,93,Increase_null,0.1,0.25,0.07943282347242815,1,0.5761208609983441
21,94,Decrease,0.25,0.1,0.012589254117941666,0,0.6323933140010922
21,95,Control,0.0,0.1,0.00794328234724281,0,0.54692744699787
21,96,Equal_null,0.1,0.1,0.06309573444801932,1,0.7222920509993855
21,97,Equal,0.1,0.1,0.015848931924611127,0,0.7411662279992015
21,98,Decrease,0.25,0.1,0.015848931924611127,1,0.510392726999271
21,99,Increase_null,0.1,0.25,0.06309573444801932,1,0.6094352180007263
21,100,Equal,0.25,0.25,0.012589254117941666,0,0.5497198390003177
21,101,Decrease,0.25,0.1,0.012589254117941666,0,0.6410381820023758
21,102,Increase,0.1,0.25,0.009999999999999995,0,0.7480651149999176
21,103,Control,0.0,0.1,0.009999999999999995,1,0.575325369998609
21,104,Increase,0.1,0.25,0.012589254117941666,1,0.8588654669983953
21,105,Equal,0.1,0.1,0.01995262314968879,1,0.7122524059996067
21,106,Equal,0.1,0.1,0.015848931924611127,1,0.6811280330002774
21,107,Equal,0.1,0.1,0.012589254117941666,0,0.5483048180030892
21,108,Control,0.0,0.25,0.012589254117941666,0,0.639233420999517
21,109,Equal,0.1,0.1,0.015848931924611127,0,0.7684722990015871
21,110,Increase,0.1,0.25,0.009999999999999995,0,0.659694876998401
21,111,Decrease,0.25,0.1,0.015848931924611127,1,0.5972559119982179
21,112,Decrease,0.25,0.1,0.012589254117941666,0,0.656161200000497
21,113,Decrease,0.25,0.1,0.015848931924611127,1,0.6030835560013657
21,114,Decrease,0.25,0.1,0.012589254117941666,1,0.5903760060027707
21,115,Increase,0.1,0.25,0.012589254117941666,0,0.6336548540020885
21,116,Control,0.0,0.25,0.015848931924611127,0,0.7649398959983955
21,117,Decrease,0.25,0.1,0.009999999999999995,1,0.6417764729994815
21,118,Decrease,0.25,0.1,0.00794328234724281,0,0.6374151930031076
21,119,Equal,0.25,0.25,0.015848931924611127,0,0.6461871770006837
21,120,Control,0.0,0.25,0.01995262314968879,0,0.7290340680010559
21,121,Decrease,0.25,0.1,0.009999999999999995,0,0.5722359390019847
21,122,Control,0.0,0.1,0.00794328234724281,0,0.5402973989985185
21,123,Equal,0.1,0.1,0.01995262314968879,0,99
21,124,Equal,0.25,0.25,0.01995262314968879,1,0.35370451799826697
21,125,Equal_null,0.1,0.1,0.05011872336272722,1,0.5252127760031726
21,126,Increase,0.1,0.25,0.015848931924611127,1,0.6239179610020074
21,127,Decrease,0.25,0.1,0.012589254117941666,0,0.6430852799967397
21,128,Increase,0.1,0.25,0.012589254117941666,1,0.6460807570001634
21,129,Control,0.0,0.1,0.009999999999999995,1,0.6263504620001186
21,130,Control,0.0,0.25,0.025118864315095794,1,0.6134790309988603
21,131,Decrease,0.25,0.1,0.015848931924611127,1,0.6010119469974597
21,132,Decrease,0.25,0.1,0.012589254117941666,1,0.47071510900059366
21,133,Increase,0.1,0.25,0.009999999999999995,1,0.6622521470017091
21,134,Increase,0.1,0.25,0.00794328234724281,1,0.6574993090034695
21,135,Control,0.0,0.1,0.00794328234724281,0,0.6026002370017522
21,136,Control,0.0,0.25,0.01995262314968879,1,0.6218913880002219
21,137,Control,0.0,0.25,0.015848931924611127,1,0.630774866000138
21,138,Decrease,0.25,0.1,0.009999999999999995,1,0.6421799210002064
21,139,Equal,0.25,0.25,0.015848931924611127,1,0.5505678090012225
21,140,Increase,0.1,0.25,0.0063095734448019285,1,0.7294865869989735
21,141,Control,0.0,0.1,0.009999999999999995,0,0.6450543489991105
21,142,Control,0.0,0.1,0.012589254117941666,1,0.7050359349996143
21,143,Control,0.0,0.1,0.009999999999999995,1,0.7561971180002729
21,144,Control,0.0,0.1,0.00794328234724281,0,0.6622443449996354
21,145,Equal,0.1,0.1,0.025118864315095794,1,0.5055493950021628
21,146,Increase,0.1,0.25,0.005011872336272719,0,0.5938186000021233
21,147,Increase,0.1,0.25,0.0063095734448019285,1,0.5892481809969468
21,148,Control,0.0,0.25,0.012589254117941666,0,0.5250649320005323
21,149,Equal_null,0.25,0.25,0.06309573444801932,1,0.7358612499992887
21,150,Equal,0.1,0.1,0.01995262314968879,0,0.7145306060010626
21,151,Equal,0.25,0.25,0.012589254117941666,1,0.7336659690008673
21,152,Increase,0.1,0.25,0.005011872336272719,0,0.7437889749999158
21,153,Control,0.0,0.25,0.015848931924611127,1,0.6266363209979318
21,154,Control,0.0,0.25,0.012589254117941666,1,0.68621619699843
21,155,Increase_null,0.1,0.25,0.05011872336272722,1,0.6103279100025247
21,156,Control,0.0,0.25,0.009999999999999995,1,0.6385577180008113
21,157,Equal,0.1,0.1,0.025118864315095794,1,0.6320160260002012
21,158,Equal,0.25,0.25,0.009999999999999995,0,0.7547633129979658
21,159,Equal,0.1,0.1,0.01995262314968879,1,0.6521411760004412
21,160,Control,0.0,0.1,0.009999999999999995,1,0.5195047260021965
21,161,Control,0.0,0.25,0.00794328234724281,0,0.639589309997973
21,162,Equal,0.25,0.25,0.012589254117941666,1,0.8585767290023796
21,163,Decrease,0.25,0.1,0.00794328234724281,0,0.789813723997213
21,164,Control,0.0,0.25,0.009999999999999995,0,0.6717390230005549
21,165,Equal,0.1,0.1,0.015848931924611127,0,0.9229426399979275
21,166,Control,0.0,0.25,0.012589254117941666,0,0.7822468230006052
21,167,Control_null,0.0,0.1,0.05011872336272722,1,0.6989471349988889
21,168,Control,0.0,0.1,0.00794328234724281,0,0.7668200320003962
21,169,Decrease_null,0.25,0.1,0.06309573444801932,1,0.7470587199968577
21,170,Control,0.0,0.25,0.015848931924611127,1,0.6693375360009668
21,171,Control,0.0,0.1,0.009999999999999995,0,0.6560540899990883
21,172,Decrease,0.25,0.1,0.009999999999999995,0,0.6405621189987869
21,173,Equal,0.25,0.25,0.009999999999999995,1,0.819637201999285
21,174,Increase,0.1,0.25,0.0063095734448019285,0,0.6520177549973596
21,175,Control,0.0,0.25,0.012589254117941666,0,0.6789555309987918
21,176,Control,0.0,0.25,0.015848931924611127,0,0.8183013790003315
21,177,Increase,0.1,0.25,0.00794328234724281,1,0.6934196020010859
21,178,Equal,0.1,0.1,0.01995262314968879,0,0.8485998059986741
21,179,Decrease,0.25,0.1,0.012589254117941666,0,0.7798017899986007
21,180,Equal,0.1,0.1,0.025118864315095794,1,0.7028718159999698
21,181,Control,0.0,0.1,0.012589254117941666,1,0.7389099749998422
21,182,Control,0.0,0.25,0.01995262314968879,1,0.6891369830009353
21,183,Equal,0.25,0.25,0.00794328234724281,0,0.6896136199975444
21,184,Increase,0.1,0.25,0.0063095734448019285,0,0.5167781150012161
21,185,Equal_null,0.1,0.1,0.03981071705534971,1,0.7406991360003303
21,186,Control,0.0,0.25,0.015848931924611127,1,0.5452306119987043
21,187,Control,0.0,0.1,0.009999999999999995,1,0.6492567289969884
21,188,Equal,0.1,0.1,0.01995262314968879,1,0.6442394299992884
21,189,Equal,0.1,0.1,0.015848931924611127,1,0.6396419019984023
21,190,Increase,0.1,0.25,0.00794328234724281,0,0.6750786249976954
21,191,Increase,0.1,0.25,0.009999999999999995,0,0.8222147699998459
21,192,Equal,0.25,0.25,0.009999999999999995,0,0.7291594760026783
21,193,Control,0.0,0.25,0.012589254117941666,0,0.6058433819998754
21,194,Control,0.0,0.25,0.015848931924611127,1,0.7050153960008174
21,195,Equal,0.25,0.25,0.012589254117941666,0,0.7654422610030451
21,196,Control,0.0,0.1,0.00794328234724281,0,0.8142040370003087
21,197,Equal,0.25,0.25,0.015848931924611127,1,0.4167728119973617
21,198,Equal,0.1,0.1,0.012589254117941666,1,0.7693125289988529
21,199,Equal,0.1,0.1,0.009999999999999995,1,0.7656324439994933
21,200,Equal,0.25,0.25,0.012589254117941666,1,0.7177871780004352
21,201,Control,0.0,0.25,0.012589254117941666,1,0.688719948000653
21,202,Decrease,0.25,0.1,0.015848931924611127,1,0.7801914400006353
21,203,Equal,0.1,0.1,0.00794328234724281,1,0.6233773349995317
21,204,Decrease_null,0.25,0.1,0.05011872336272722,1,0.6425684640016698
21,205,Increase,0.1,0.25,0.012589254117941666,1,0.6697182220013929
21,206,Control,0.0,0.1,0.009999999999999995,1,0.7459923430033086
21,207,Equal,0.1,0.1,0.0063095734448019285,0,0.7023462929973903
21,208,Decrease,0.25,0.1,0.012589254117941666,0,0.6916375200016773
21,209,Decrease,0.25,0.1,0.015848931924611127,1,0.6194348169992736
21,210,Equal,0.1,0.1,0.00794328234724281,1,0.6866689890011912
21,211,Decrease,0.25,0.1,0.012589254117941666,0,0.6229301029998169
21,212,Increase,0.1,0.25,0.009999999999999995,1,0.6181059480004478
21,213,Decrease,0.25,0.1,0.015848931924611127,1,0.6101833920001809
21,214,Decrease,0.25,0.1,0.012589254117941666,1,0.7972590409990516
21,215,Control,0.0,0.25,0.009999999999999995,0,0.5044484489990282
21,216,Increase,0.1,0.25,0.00794328234724281,0,0.7079141370013531
21,217,Equal,0.25,0.25,0.009999999999999995,1,0.6470654619988636
21,218,Equal,0.25,0.25,0.00794328234724281,0,0.7951841899994179
21,219,Control,0.0,0.25,0.012589254117941666,1,0.5993516269991233
21,220,Equal,0.25,0.25,0.009999999999999995,0,0.7636942630015255
21,221,Increase,0.1,0.25,0.009999999999999995,0,0.8012263220007299
21,222,Control,0.0,0.25,0.009999999999999995,0,0.6338169110022136
21,223,Equal,0.1,0.1,0.0063095734448019285,1,0.6450694300001487
21,224,Equal,0.25,0.25,0.012589254117941666,0,0.6692478069999197
21,225,Equal,0.1,0.1,0.005011872336272719,0,0.6481508699980623
21,226,Control,0.0,0.25,0.012589254117941666,0,0.6017462299969338
21,227,Equal,0.25,0.25,0.015848931924611127,0,0.6207448179993662
21,228,Equal,0.25,0.25,0.01995262314968879,1,0.6798992690019077
21,229,Control,0.0,0.1,0.00794328234724281,1,0.6430176649992063
21,230,Equal,0.1,0.1,0.0063095734448019285,0,0.7020094910003536
21,231,Equal_null,0.1,0.1,0.031622776601683784,1,0.7864765160011302
21,232,Equal,0.25,0.25,0.015848931924611127,1,0.5102432540006703
21,233,Control_null,0.0,0.1,0.03981071705534971,1,0.7062325789993338
21,234,Control,0.0,0.25,0.015848931924611127,1,0.5993102100001124
21,235,Control,0.0,0.25,0.012589254117941666,0,0.6082714299991494
21,236,Decrease,0.25,0.1,0.009999999999999995,1,0.6596358289971249
21,237,Equal,0.1,0.1,0.00794328234724281,0,0.7957854150008643
21,238,Control,0.0,0.1,0.0063095734448019285,0,0.7587723879987607
21,239,Equal,0.25,0.25,0.012589254117941666,0,0.752007062001212
21,240,Decrease,0.25,0.1,0.00794328234724281,0,0.6433721389985294
21,241,Control_null,0.0,0.1,0.031622776601683784,1,0.614656993002427
21,242,Equal,0.25,0.25,0.015848931924611127,1,0.6260010629994213
21,243,Decrease,0.25,0.1,0.009999999999999995,0,0.653449677000026
21,244,Equal,0.25,0.25,0.012589254117941666,1,0.8723237859994697
21,245,Decrease,0.25,0.1,0.012589254117941666,1,0.7788240150002821
21,246,Equal,0.25,0.25,0.009999999999999995,0,0.6308639950002544
21,247,Control_null,0.0,0.25,0.07943282347242815,1,0.681855139999243
21,248,Control,0.0,0.1,0.00794328234724281,0,0.5811709570007224
21,249,Increase,0.1,0.25,0.012589254117941666,1,0.7364443590013252
21,250,Control,0.0,0.25,0.015848931924611127,1,0.6884391070016136
21,251,Equal,0.25,0.25,0.012589254117941666,1,0.6598675089990138
21,252,Increase,0.1,0.25,0.009999999999999995,1,0.653843339998275
21,253,Equal,0.1,0.1,0.009999999999999995,1,0.6250674450020597
21,254,Equal,0.25,0.25,0.009999999999999995,1,0.5802215449984942
21,255,Control,0.0,0.25,0.012589254117941666,0,0.6556206679997558
21,256,Decrease,0.25,0.1,0.009999999999999995,1,0.6345487290018355
21,257,Equal,0.1,0.1,0.00794328234724281,1,0.9909048230001645
21,258,Equal,0.1,0.1,0.0063095734448019285,0,0.5784222059992317
21,259,Control,0.0,0.25,0.015848931924611127,1,0.5822517989981861
21,260,Control,0.0,0.1,0.009999999999999995,1,0.6151719090012193
21,261,Decrease,0.25,0.1,0.00794328234724281,1,0.6025863920003758
21,262,Control,0.0,0.25,0.012589254117941666,0,0.5645627199992305
21,263,Increase,0.1,0.25,0.00794328234724281,1,0.6381131750022178
21,264,Decrease,0.25,0.1,0.0063095734448019285,1,0.7610392070018861
21,265,Equal,0.25,0.25,0.00794328234724281,0,0.6422720739974466
21,266,Equal,0.1,0.1,0.00794328234724281,0,0.7895652949991927
21,267,Control,0.0,0.25,0.015848931924611127,1,0.6395706140028778
21,268,Increase,0.1,0.25,0.0063095734448019285,0,0.5151657220012567
21,269,Control,0.0,0.1,0.00794328234724281,1,0.6861217999976361
21,270,Control_null,0.0,0.25,0.06309573444801932,1,0.6423791989982419
21,271,Decrease,0.25,0.1,0.005011872336272719,1,0.6603271820022201
21,272,Equal,0.25,0.25,0.009999999999999995,0,0.7286536840001645
21,273,Decrease,0.25,0.1,0.00398107170553497,0,1.1226253690001613
21,274,Equal_null,0.1,0.1,0.02511886431509579,1,0.6861093669976981
21,275,Control,0.0,0.1,0.0063095734448019285,0,0.624958966000122
21,276,Control,0.0,0.1,0.00794328234724281,1,0.6584406969996053
21,277,Equal,0.25,0.25,0.012589254117941666,0,0.7574412320027477
21,278,Increase,0.1,0.25,0.00794328234724281,0,0.639642668000306
21,279,Control,0.0,0.1,0.0063095734448019285,0,0.778792943998269
21,280,Control,0.0,0.1,0.00794328234724281,1,0.7742485259987006
21,281,Control,0.0,0.25,0.012589254117941666,1,0.6973397029978514
21,282,Control,0.0,0.25,0.009999999999999995,0,0.9349887270000181
21,283,Increase,0.1,0.25,0.009999999999999995,0,0.9537495910008147
21,284,Decrease_null,0.25,0.1,0.03981071705534971,1,0.6679659100009303
21,285,Control,0.0,0.1,0.0063095734448019285,0,0.6230118870007573
21,286,Control,0.0,0.25,0.012589254117941666,1,0.7762408189992129
21,287,Equal,0.1,0.1,0.009999999999999995,1,0.7874405619986646
21,288,Equal,0.25,0.25,0.015848931924611127,1,0.6784887799985881
21,289,Decrease_null,0.25,0.1,0.031622776601683784,1,0.7028051010020135
21,290,Increase,0.1,0.25,0.012589254117941666,1,0.6350695599976461
21,291,Control,0.0,0.25,0.009999999999999995,1,0.6522501669969643
21,292,Control,0.0,0.25,0.00794328234724281,1,0.7683868250023806
21,293,Equal,0.1,0.1,0.00794328234724281,0,0.9154339100023208
21,294,Equal,0.1,0.1,0.009999999999999995,1,0.7987317879997136
21,295,Increase,0.1,0.25,0.009999999999999995,1,0.6350864789965271
21,296,Equal,0.1,0.1,0.00794328234724281,1,0.6470638809987577
21,297,Decrease,0.25,0.1,0.00501187233627272,1,0.7689946539976518
21,298,Decrease,0.25,0.1,0.00398107170553497,0,0.8044342850007524
21,299,Increase,0.1,0.25,0.00794328234724281,0,0.5889133570017293
21,300,Equal,0.1,0.1,0.0063095734448019285,1,0.6010382659987954
21,301,Decrease,0.25,0.1,0.00501187233627272,0,0.6999106879993633
21,302,Control,0.0,0.25,0.0063095734448019285,0,0.980263425000885
21,303,Increase,0.1,0.25,0.009999999999999995,0,0.8075399430017569
21,304,Increase,0.1,0.25,0.012589254117941666,0,0.6334835390007356
21,305,Control,0.0,0.1,0.00794328234724281,0,0.5817247200029669
21,306,Decrease,0.25,0.1,0.006309573444801929,0,0.6889896519969625
21,307,Equal_null,0.25,0.25,0.05011872336272722,1,0.6522663440009637
21,308,Control,0.0,0.25,0.00794328234724281,0,0.8641428580012871
21,309,Control_null,0.0,0.25,0.05011872336272722,1,0.7898874900020019
21,310,Control,0.0,0.1,0.009999999999999995,1,0.9825905670004431
21,311,Control,0.0,0.1,0.00794328234724281,0,0.7787502949977352
21,312,Control,0.0,0.1,0.009999999999999995,1,0.8351857859997835
21,313,Decrease,0.25,0.1,0.007943282347242812,0,0.8303427999999258
21,314,Increase,0.1,0.25,0.015848931924611127,1,0.5775955360004446
21,315,Control,0.0,0.25,0.009999999999999995,1,0.7937004119994526
21,316,Decrease,0.25,0.1,0.009999999999999997,0,0.797818389000895
21,317,Control,0.0,0.1,0.00794328234724281,1,0.5999373340018792
21,318,Equal,0.25,0.25,0.012589254117941666,1,0.7712074599985499
21,319,Equal,0.25,0.25,0.009999999999999995,0,0.8303427459977684
21,320,Decrease,0.25,0.1,0.012589254117941668,1,0.5866786840015266
21,321,Equal,0.25,0.25,0.012589254117941666,1,0.7921395929988648
21,322,Equal,0.1,0.1,0.005011872336272719,1,0.875741496001865
21,323,Control,0.0,0.25,0.00794328234724281,0,1.1649018440002692
21,324,Increase,0.1,0.25,0.012589254117941666,1,0.6551994030014612
21,325,Control,0.0,0.1,0.0063095734448019285,1,0.8877014530007727
21,326,Control,0.0,0.1,0.005011872336272719,0,0.6267243609981961
21,327,Control,0.0,0.1,0.0063095734448019285,0,99
21,328,Decrease,0.25,0.1,0.009999999999999997,0,0.7341360530008387
21,329,Equal,0.1,0.1,0.00398107170553497,0,0.6343549709999934
21,330,Equal,0.1,0.1,0.00501187233627272,0,0.7802053190025617
21,331,Equal,0.1,0.1,0.006309573444801929,1,0.6317652319994522
21,332,Increase,0.1,0.25,0.009999999999999995,0,0.6028004060026433
21,333,Equal,0.1,0.1,0.00501187233627272,0,0.6549610690017289
21,334,Increase,0.1,0.25,0.012589254117941666,0,0.6272100579990365
21,335,Control,0.0,0.25,0.009999999999999995,0,0.655663192999782
21,336,Equal_null,0.1,0.1,0.01995262314968879,1,0.8256750289983756
21,337,Decrease,0.25,0.1,0.012589254117941668,1,0.7088770129994373
21,338,Increase,0.1,0.25,0.015848931924611127,1,0.6050538900017273
21,339,Equal,0.1,0.1,0.006309573444801929,0,0.7918620720010949
21,340,Control,0.0,0.1,0.00794328234724281,1,0.6814972269967257
21,341,Increase,0.1,0.25,0.012589254117941666,1,0.5165987000000314
21,342,Equal,0.1,0.1,0.007943282347242812,1,0.5665111870002875
21,343,Control,0.0,0.1,0.0063095734448019285,0,0.5538209229998756
21,344,Control,0.0,0.1,0.00794328234724281,1,0.7246962089993758
21,345,Increase,0.1,0.25,0.009999999999999995,1,0.7281614099993021
21,346,Decrease,0.25,0.1,0.009999999999999997,1,0.6765079249998962
21,347,Control,0.0,0.25,0.012589254117941666,0,0.8651256220000505
21,348,Increase,0.1,0.25,0.00794328234724281,1,0.8774999739980558
21,349,Equal_null,0.25,0.25,0.03981071705534971,1,0.8618019620007544
21,350,Equal,0.1,0.1,0.006309573444801929,1,0.9381813299987698
21,351,Equal,0.1,0.1,0.00501187233627272,0,0.7544729569999618
21,352,Equal,0.1,0.1,0.006309573444801929,0,0.6936085349989298
21,353,Equal,0.25,0.25,0.009999999999999995,1,0.5895013330009533
21,354,Increase,0.1,0.25,0.0063095734448019285,1,0.5450877240000409
21,355,Increase,0.1,0.25,0.005011872336272719,0,0.7000183809977898
21,356,Control,0.0,0.1,0.0063095734448019285,0,0.782539297000767
21,357,Increase,0.1,0.25,0.0063095734448019285,0,0.8094991380021384
21,358,Control_null,0.0,0.1,0.02511886431509579,1,0.7817610810016049
21,359,Control,0.0,0.1,0.00794328234724281,1,0.7289534650008136
21,360,Decrease,0.25,0.1,0.007943282347242812,1,0.7877190649996919
21,361,Equal,0.1,0.1,0.007943282347242812,1,0.6959235819995229
21,362,Control,0.0,0.25,0.015848931924611127,1,0.6990580160017998
21,363,Equal_null,0.1,0.1,0.015848931924611127,0,0.7420305870000448
21,364,Equal,0.1,0.1,0.006309573444801929,0,0.5785260619995825
21,365,Increase,0.1,0.25,0.00794328234724281,1,0.5829146239993861
21,366,Control,0.0,0.1,0.0063095734448019285,0,0.6158151430026919
21,367,Control,0.0,0.25,0.012589254117941666,1,0.7866573450010037
21,368,Increase,0.1,0.25,0.0063095734448019285,0,0.5793016329989769
21,369,Control,0.0,0.1,0.00794328234724281,0,0.6555159269992146
21,370,Increase,0.1,0.25,0.00794328234724281,1,0.5765814489968761
21,371,Decrease_null,0.25,0.1,0.02511886431509579,1,0.6597125799999048
21,372,Control,0.0,0.1,0.009999999999999995,0,0.6709271219988295
21,373,Equal,0.1,0.1,0.007943282347242812,1,0.7942467300017597
21,374,Decrease,0.25,0.1,0.006309573444801929,0,0.669494912999653
21,375,Decrease,0.25,0.1,0.007943282347242812,1,0.6325028540013591
21,376,Equal_null,0.25,0.25,0.031622776601683784,1,0.8196674949977023
21,377,Equal,0.25,0.25,0.00794328234724281,1,0.6413431690016296
21,378,Increase,0.1,0.25,0.0063095734448019285,0,0.7406783980004548
21,379,Control,0.0,0.25,0.009999999999999995,1,0.6612637779981014
21,380,Increase,0.1,0.25,0.00794328234724281,1,0.960446506000153
21,381,Equal,0.25,0.25,0.0063095734448019285,1,0.936587463998876
21,382,Equal,0.1,0.1,0.006309573444801929,0,0.6119561800005613
21,383,Decrease,0.25,0.1,0.006309573444801929,0,0.5723172229991178
21,384,Equal,0.25,0.25,0.005011872336272719,0,0.5842337440008123
21,385,Decrease,0.25,0.1,0.007943282347242812,1,0.5397502520027047
21,386,Decrease,0.25,0.1,0.006309573444801929,0,0.6306381079994026
21,387,Equal,0.25,0.25,0.0063095734448019285,0,0.9138053620008577
21,388,Equal_null,0.25,0.25,0.02511886431509579,1,0.7091723180019471
21,389,Equal,0.25,0.25,0.00794328234724281,0,0.72914388999925
21,390,Control,0.0,0.1,0.012589254117941666,1,0.7405105420002656
21,391,Equal,0.25,0.25,0.009999999999999995,1,0.761915011000383
21,392,Increase_null,0.1,0.25,0.03981071705534971,1,0.5937868789987988
21,393,Equal,0.25,0.25,0.00794328234724281,0,0.6373522249996313
21,394,Equal,0.25,0.25,0.009999999999999995,1,0.7890457889989193
21,395,Equal,0.1,0.1,0.007943282347242812,1,0.7842488669994054
21,396,Equal,0.25,0.25,0.00794328234724281,0,0.7773916090009152
21,397,Equal,0.1,0.1,0.006309573444801929,1,0.900395134001883
21,398,Decrease,0.25,0.1,0.007943282347242812,0,0.5838694589983788
21,399,Decrease,0.25,0.1,0.009999999999999997,1,0.5551474109997798
21,400,Control,0.0,0.25,0.00794328234724281,0,0.6542659980004828
21,401,Control,0.0,0.25,0.009999999999999995,0,0.5944449119997444
21,402,Equal,0.25,0.25,0.009999999999999995,0,0.7175976520011318
21,403,Equal,0.1,0.1,0.00501187233627272,0,0.7289014519992634
21,404,Equal,0.25,0.25,0.012589254117941666,1,0.684115746000316
21,405,Equal,0.1,0.1,0.006309573444801929,0,0.5332992010007729
21,406,Equal,0.25,0.25,0.009999999999999995,1,0.6323808500019368
21,407,Equal,0.25,0.25,0.00794328234724281,0,0.5055364460022247
21,408,Control,0.0,0.25,0.012589254117941666,0,0.6768861560012738
21,409,Decrease,0.25,0.1,0.007943282347242812,1,0.6220866460025718
21,410,Equal,0.1,0.1,0.007943282347242812,1,0.7292262060000212
21,411,Control,0.0,0.25,0.015848931924611127,1,0.8764538879986503
21,412,Equal,0.1,0.1,0.006309573444801929,1,0.8872377430016058
21,413,Equal,0.1,0.1,0.00501187233627272,1,1.026677612997446
21,414,Equal,0.1,0.1,0.00398107170553497,1,0.7980206200008979
21,415,Increase,0.1,0.25,0.0063095734448019285,0,0.6970842620030453
21,416,Control,0.0,0.1,0.009999999999999995,0,0.627146406997781
21,417,Equal,0.1,0.1,0.0031622776601683772,1,0.7686011789992335
21,418,Equal,0.25,0.25,0.009999999999999995,0,0.5526876610019826
21,419,Increase,0.1,0.25,0.00794328234724281,1,0.787799226000061
21,420,Control,0.0,0.1,0.012589254117941666,0,0.8043218560014793
21,421,Increase,0.1,0.25,0.0063095734448019285,1,0.6310136380016047
21,422,Control,0.0,0.1,0.015848931924611127,0,0.7773053730015818
21,423,Control,0.0,0.1,0.01995262314968879,0,0.596249911999621
21,424,Decrease,0.25,0.1,0.006309573444801929,0,0.5676104180020047
21,425,Control,0.0,0.25,0.012589254117941666,1,0.7787921830022242
21,426,Increase,0.1,0.25,0.005011872336272719,0,0.7271408930027974
21,427,Control,0.0,0.25,0.009999999999999995,0,0.8182310030024382
21,428,Control_null,0.0,0.25,0.03981071705534971,0,0.7114211670013901
21,429,Equal,0.25,0.25,0.012589254117941666,0,1.1858130650034582
21,430,Equal,0.25,0.25,0.015848931924611127,0,0.9258966300003522
21,431,Equal,0.25,0.25,0.01995262314968879,1,0.5818618960001913
21,432,Control,0.0,0.1,0.025118864315095794,1,0.44908533000125317
21,433,Equal,0.25,0.25,0.015848931924611127,1,0.6663466899990453
21,434,Control,0.0,0.25,0.012589254117941666,0,0.6215346579992911
21,435,Control,0.0,0.1,0.01995262314968879,1,0.6638710249972064
21,436,Control,0.0,0.1,0.015848931924611127,1,0.7632621209995705
21,437,Control,0.0,0.1,0.012589254117941666,0,0.7180209879988979
21,438,Control,0.0,0.1,0.015848931924611127,1,0.6724229750034283
21,439,Control,0.0,0.1,0.012589254117941666,1,0.6365993959989282
21,440,Decrease,0.25,0.1,0.007943282347242812,1,0.6181695369996305
21,441,Equal,0.25,0.25,0.012589254117941666,0,0.5567847800011805
21,442,Increase,0.1,0.25,0.0063095734448019285,1,0.7741011209982389
21,443,Control_null,0.0,0.1,0.01995262314968879,0,0.6490943130011146
21,444,Equal,0.1,0.1,0.002511886431509578,0,0.5855157959995267
21,445,Equal,0.1,0.1,0.0031622776601683772,0,0.6599266859993804
21,446,Equal_null,0.25,0.25,0.01995262314968879,1,0.6445793009988847
21,447,Control_null,0.0,0.25,0.05011872336272721,1,0.5524920539974119
21,448,Increase,0.1,0.25,0.005011872336272719,0,0.6263608959998237
21,449,Equal,0.1,0.1,0.00398107170553497,1,0.550351824000245
21,450,Equal,0.1,0.1,0.0031622776601683772,0,0.5935335260001011
21,451,Control,0.0,0.1,0.009999999999999995,0,0.5567446120003297
21,452,Increase,0.1,0.25,0.0063095734448019285,0,0.47170605700011947
21,453,Increase,0.1,0.25,0.00794328234724281,1,0.49319819799711695
21,454,Decrease,0.25,0.1,0.006309573444801929,0,0.5613092450003023
21,455,Equal_null,0.25,0.25,0.015848931924611127,0,0.6594371780010988
21,456,Increase,0.1,0.25,0.0063095734448019285,1,0.8305925220010977
21,457,Control,0.0,0.1,0.012589254117941666,1,0.7988210629991954
21,458,Control_null,0.0,0.1,0.025118864315095794,1,0.6181772710006044
21,459,Increase,0.1,0.25,0.005011872336272719,1,0.5784779339992383
21,460,Control,0.0,0.1,0.009999999999999995,1,0.6455132880000747
21,461,Control,0.0,0.25,0.015848931924611127,0,0.5755842780017701
21,462,Decrease,0.25,0.1,0.007943282347242812,0,0.4669090450006479
21,463,Control,0.0,0.25,0.01995262314968879,1,0.48569118100203923
21,464,Decrease,0.25,0.1,0.009999999999999997,1,0.7209730430004129
21,465,Control,0.0,0.1,0.00794328234724281,1,0.7160737230005907
21,466,Control_null,0.0,0.25,0.03981071705534971,1,0.5695747520003351
21,467,Decrease,0.25,0.1,0.007943282347242812,0,0.4872174360025383
21,468,Equal_null,0.1,0.1,0.01995262314968879,1,0.38288621500032605
21,469,Control,0.0,0.1,0.0063095734448019285,0,0.5067896940017818
21,470,Control,0.0,0.25,0.015848931924611127,0,0.2992423729992879
21,471,Control,0.0,0.25,0.01995262314968879,1,0.5745289799997408
21,472,Equal,0.25,0.25,0.015848931924611127,0,0.6237725110004249
21,473,Control,0.0,0.25,0.015848931924611127,1,0.6828565750001871
21,474,Decrease,0.25,0.1,0.009999999999999997,1,0.5092245819978416
21,475,Increase,0.1,0.25,0.00398107170553497,0,0.704080719002377
21,476,Equal,0.1,0.1,0.00398107170553497,1,0.6446113559977675
21,477,Equal,0.25,0.25,0.01995262314968879,1,0.6075032750013634
21,478,Increase,0.1,0.25,0.00501187233627272,1,0.6587531129989657
21,479,Control,0.0,0.1,0.00794328234724281,1,0.5351470300010988
21,480,Increase,0.1,0.25,0.00398107170553497,0,0.48937520700201276
21,481,Control,0.0,0.25,0.012589254117941666,0,0.8615089300001273
21,482,Control,0.0,0.1,0.0063095734448019285,0,0.6388576059980551
21,483,Control,0.0,0.25,0.015848931924611127,1,0.6509237009995559
21,484,Equal,0.1,0.1,0.0031622776601683772,0,0.5792089349997696
21,485,Decrease,0.25,0.1,0.007943282347242812,1,0.7021649180023815
21,486,Increase,0.1,0.25,0.00501187233627272,0,0.5774946269993961
21,487,Control,0.0,0.1,0.00794328234724281,1,0.6904963659981149
21,488,Equal,0.1,0.1,0.00398107170553497,0,0.869882435999898
21,489,Control,0.0,0.1,0.0063095734448019285,1,0.6729706490004901
21,490,Decrease_null,0.25,0.1,0.01995262314968879,1,0.724338905998593
21,491,Control,0.0,0.25,0.012589254117941666,0,0.6304039290007495
21,492,Increase,0.1,0.25,0.006309573444801929,1,0.8654077440005494
21,493,Equal,0.1,0.1,0.00501187233627272,0,0.9980307529986021
21,494,Equal,0.1,0.1,0.006309573444801929,0,0.8183506220011623
21,495,Equal,0.25,0.25,0.015848931924611127,0,0.6271006160022807
21,496,Equal,0.1,0.1,0.007943282347242812,1,0.6545996900022146
21,497,Equal,0.25,0.25,0.01995262314968879,1,1.1584915530002036
21,498,Control,0.0,0.1,0.005011872336272719,0,0.689720947000751
21,499,Decrease,0.25,0.1,0.006309573444801929,1,0.6990341160017124
21,500,Decrease,0.25,0.1,0.00501187233627272,0,0.686444463000953
21,501,Control,0.0,0.1,0.0063095734448019285,0,0.5932538470005966
21,502,Control,0.0,0.25,0.015848931924611127,1,1.060210637999262
21,503,Control,0.0,0.25,0.012589254117941666,0,1.0395861880024313
21,504,Control,0.0,0.25,0.015848931924611127,1,0.8438618519976444
21,505,Equal,0.1,0.1,0.006309573444801929,1,0.7110619039995072
21,506,Control,0.0,0.25,0.012589254117941666,1,0.6596572650014423
21,507,Equal,0.1,0.1,0.00501187233627272,1,0.7435843240018585
21,508,Equal,0.1,0.1,0.00398107170553497,0,0.6242423709991272
21,509,Increase,0.1,0.25,0.00501187233627272,1,0.8194972959972802
21,510,Equal,0.25,0.25,0.015848931924611127,1,0.8038622109997959
21,511,Equal,0.1,0.1,0.00501187233627272,1,0.7192406040012429
21,512,Equal,0.1,0.1,0.00398107170553497,0,0.6332633640013228
21,513,Decrease,0.25,0.1,0.006309573444801929,0,0.5485371489994577
21,514,Control,0.0,0.1,0.00794328234724281,1,0.6718274530030612
21,515,Control,0.0,0.1,0.0063095734448019285,0,0.7227391779997561
21,516,Increase,0.1,0.25,0.00398107170553497,0,0.5659463589981897
21,517,Equal,0.25,0.25,0.012589254117941666,1,0.6330235770001309
21,518,Control,0.0,0.1,0.00794328234724281,0,0.916428739001276
21,519,Increase,0.1,0.25,0.00501187233627272,1,0.7448426069968264
21,520,Increase,0.1,0.25,0.00398107170553497,1,0.8543494090008608
21,521,Equal,0.1,0.1,0.00501187233627272,0,0.6698895230001654
21,522,Equal,0.1,0.1,0.006309573444801929,0,0.6100533239987271
21,523,Control,0.0,0.25,0.009999999999999995,0,0.7543756349987234
21,524,Increase,0.1,0.25,0.0031622776601683772,0,0.6534761830007483
21,525,Equal,0.25,0.25,0.009999999999999995,0,0.6227221730005112
21,526,Increase,0.1,0.25,0.00398107170553497,0,0.6336833840032341
21,527,Control,0.0,0.25,0.012589254117941666,0,0.7091164920020674
21,528,Equal,0.25,0.25,0.012589254117941666,1,0.6802008689992363
21,529,Decrease,0.25,0.1,0.007943282347242812,1,0.7399997700013046
21,530,Decrease,0.25,0.1,0.006309573444801929,0,0.7997217759984778
21,531,Equal,0.25,0.25,0.009999999999999995,0,0.5787785370011989
21,532,Decrease,0.25,0.1,0.007943282347242812,1,0.8715578719966288
21,533,Control,0.0,0.1,0.009999999999999995,1,0.7224104770029953
21,534,Equal_null,0.25,0.25,0.01995262314968879,1,0.7645056969995494
21,535,Increase,0.1,0.25,0.00501187233627272,0,0.6635939030020381
21,536,Equal,0.1,0.1,0.007943282347242812,0,0.8638186789976317
21,537,Equal,0.1,0.1,0.009999999999999997,1,0.7227341230027378
21,538,Control,0.0,0.25,0.015848931924611127,1,0.7161845049995463
21,539,Equal,0.1,0.1,0.007943282347242812,1,0.6393845839993446
21,540,Decrease,0.25,0.1,0.006309573444801929,1,0.7466183830001683
21,541,Increase_null,0.1,0.25,0.031622776601683784,1,0.6219253050003317
21,542,Decrease_null,0.25,0.1,0.015848931924611127,0,0.6339550720003899
21,543,Equal,0.25,0.25,0.012589254117941666,1,0.6850848899994162
21,544,Equal,0.1,0.1,0.006309573444801929,0,0.6884975760003726
21,545,Equal,0.1,0.1,0.007943282347242812,1,0.5943291860021418
21,546,Equal,0.25,0.25,0.009999999999999995,1,0.9108754670014605
21,547,Control,0.0,0.25,0.012589254117941666,1,0.7370007069985149
21,548,Increase,0.1,0.25,0.006309573444801929,0,0.6120918330016138
21,549,Control,0.0,0.1,0.00794328234724281,1,0.6682900940031686
21,550,Control,0.0,0.25,0.009999999999999995,0,0.7275062109983992
21,551,Control,0.0,0.25,0.012589254117941666,0,0.5936056210011884
21,552,Decrease,0.25,0.1,0.00501187233627272,0,0.2210463819974393
21,553,Decrease,0.25,0.1,0.006309573444801929,0,0.6138350760011235
21,554,Increase,0.1,0.25,0.007943282347242812,1,0.6811490719992435
21,555,Equal,0.1,0.1,0.006309573444801929,1,0.6678999239993573
21,556,Decrease,0.25,0.1,0.007943282347242812,0,0.4004265440016752
21,557,Increase_null,0.1,0.25,0.02511886431509579,1,0.6996640800025489
21,558,Equal,0.25,0.25,0.00794328234724281,0,0.863093749001564
21,559,Decrease,0.25,0.1,0.009999999999999997,0,0.6428331800016167
21,560,Decrease,0.25,0.1,0.012589254117941668,1,0.6197295090023545
21,561,Equal,0.25,0.25,0.009999999999999995,0,0.7104338879980787
21,562,Equal,0.1,0.1,0.00501187233627272,0,1.2478976950005745
21,563,Control,0.0,0.1,0.0063095734448019285,0,0.8110667889995966
21,564,Control,0.0,0.1,0.00794328234724281,1,0.7091145399972447
21,565,Equal,0.25,0.25,0.012589254117941666,1,0.5841335270015406
21,566,Equal,0.25,0.25,0.009999999999999995,1,0.763356740000745
21,567,Control,0.0,0.25,0.015848931924611127,1,0.7263618110009702
21,568,Equal,0.25,0.25,0.00794328234724281,1,0.6818282429994724
21,569,Control,0.0,0.1,0.0063095734448019285,1,0.7499150820003706
21,570,Control,0.0,0.25,0.012589254117941666,0,0.650311684999906
21,571,Decrease,0.25,0.1,0.009999999999999997,0,0.5075187149996054
21,572,Decrease,0.25,0.1,0.012589254117941668,0,0.791475640002318
21,573,Equal,0.1,0.1,0.006309573444801929,1,0.6638216359970102
21,574,Equal,0.1,0.1,0.00501187233627272,1,0.6910366600022826
21,575,Control,0.0,0.25,0.015848931924611127,1,0.6039074410000467
21,576,Increase,0.1,0.25,0.006309573444801929,0,0.8312403660020209
21,577,Control,0.0,0.1,0.005011872336272719,0,1.121508256001107
21,578,Decrease,0.25,0.1,0.01584893192461113,1,0.5728317799985234
21,579,Decrease,0.25,0.1,0.012589254117941668,1,0.6557697970019944
21,580,Control,0.0,0.25,0.012589254117941666,1,0.7548920010012807
21,581,Control,0.0,0.25,0.009999999999999995,0,0.703386508001131
21,582,Control,0.0,0.1,0.0063095734448019285,0,0.8755154379978194
21,583,Equal,0.1,0.1,0.00398107170553497,1,0.7432942170016759
21,584,Equal,0.1,0.1,0.0031622776601683772,1,0.8336771680005768
21,585,Control,0.0,0.1,0.00794328234724281,0,0.6849407289992087
21,586,Control,0.0,0.1,0.009999999999999995,0,0.7902262749994406
21,587,Decrease,0.25,0.1,0.009999999999999997,1,0.6572830110017094
21,588,Control,0.0,0.25,0.012589254117941666,1,0.641645821997372
21,589,Increase,0.1,0.25,0.007943282347242812,1,0.7963953760008735
21,590,Control,0.0,0.25,0.009999999999999995,1,0.3350001289982174
21,591,Decrease,0.25,0.1,0.007943282347242812,0,0.545970753999427
21,592,Decrease,0.25,0.1,0.009999999999999997,1,0.6282051740017778
21,593,Increase,0.1,0.25,0.006309573444801929,1,0.9365816629979236
21,594,Increase,0.1,0.25,0.00501187233627272,0,0.43468903499888256
21,595,Decrease,0.25,0.1,0.007943282347242812,1,0.7668377599984524
21,596,Increase,0.1,0.25,0.006309573444801929,0,0.8747945590002928
21,597,Equal,0.25,0.25,0.0063095734448019285,0,0.8523422450016369
21,598,Control_null,0.0,0.25,0.031622776601683784,1,0.5514165770000545
21,599,Equal,0.1,0.1,0.002511886431509578,0,0.19247648300006404
21,600,Increase,0.1,0.25,0.007943282347242812,1,0.6375827490010124
21,601,Control,0.0,0.25,0.00794328234724281,1,0.775601673998608
21,602,Control,0.0,0.25,0.0063095734448019285,1,0.843053606000467
21,603,Control,0.0,0.1,0.012589254117941666,1,0.7351730820009834
21,604,Equal,0.1,0.1,0.0031622776601683772,0,0.5944004140001198
21,605,Control,0.0,0.1,0.009999999999999995,1,0.7415634029966895
21,606,Equal,0.1,0.1,0.00398107170553497,0,0.61880994600142
21,607,Control_null,0.0,0.25,0.02511886431509579,1,0.6235047770023812
21,608,Decrease,0.25,0.1,0.006309573444801929,0,0.6322537550004199
21,609,Control_null,0.0,0.1,0.01995262314968879,1,0.699162715998682
21,610,Equal,0.1,0.1,0.00501187233627272,0,0.5774492099990312
21,611,Equal,0.1,0.1,0.006309573444801929,0,0.6693762969989621
21,612,Control,0.0,0.25,0.005011872336272719,0,0.781912865000777
21,613,Increase,0.1,0.25,0.006309573444801929,1,0.9691499580003438
21,614,Control,0.0,0.25,0.0063095734448019285,0,0.6922248519986169
21,615,Control,0.0,0.1,0.00794328234724281,1,0.5672465950010519
21,616,Equal,0.1,0.1,0.007943282347242812,1,0.49037840200253413
21,617,Control,0.0,0.1,0.0063095734448019285,0,0.7177344689989695
21,618,Control,0.0,0.1,0.00794328234724281,0,0.7610968710032466
21,619,Increase,0.1,0.25,0.00501187233627272,0,0.9095615790029115
21,620,Equal,0.25,0.25,0.00794328234724281,1,0.6750310019997414
21,621,Increase,0.1,0.25,0.006309573444801929,0,0.8434980279998854
21,622,Increase,0.1,0.25,0.007943282347242812,1,0.6784909939997306
21,623,Control,0.0,0.1,0.009999999999999995,1,0.6077893250003399
21,624,Increase,0.1,0.25,0.006309573444801929,0,0.6507565130013973
21,625,Equal,0.1,0.1,0.006309573444801929,0,0.6752172679989599
21,626,Control,0.0,0.25,0.00794328234724281,0,0.9103051599995524
21,627,Control,0.0,0.1,0.00794328234724281,1,0.6976666680020571
21,628,Equal,0.1,0.1,0.007943282347242812,1,0.6457720260004862
21,629,Control,0.0,0.1,0.0063095734448019285,1,0.7769279819985968
21,630,Control,0.0,0.1,0.005011872336272719,1,0.8522696750005707
21,631,Control,0.0,0.25,0.009999999999999995,1,0.8715030060011486
21,632,Control,0.0,0.25,0.00794328234724281,0,0.7802028260011866
21,633,Equal,0.25,0.25,0.0063095734448019285,0,0.7132853240000259
21,634,Control,0.0,0.1,0.00398107170553497,0,0.7858948670000245
21,635,Control,0.0,0.25,0.009999999999999995,1,0.8922637220020988
21,636,Increase_null,0.1,0.25,0.01995262314968879,1,0.557738948999031
21,637,Control,0.0,0.25,0.00794328234724281,0,0.7681452840006386
21,638,Control,0.0,0.1,0.00501187233627272,1,0.7536453160028032
21,639,Control,0.0,0.1,0.00398107170553497,0,0.5328930559990113
21,640,Control,0.0,0.1,0.00501187233627272,0,0.7041486529997201
21,641,Control,0.0,0.25,0.009999999999999995,0,0.843267119002121
21,642,Decrease,0.25,0.1,0.007943282347242812,1,0.5745746879983926
21,643,Equal,0.1,0.1,0.006309573444801929,0,0.5937594829993031
21,644,Equal,0.25,0.25,0.00794328234724281,0,0.7398408569970343
21,645,Decrease,0.25,0.1,0.006309573444801929,1,0.9680292519988143
21,646,Equal,0.1,0.1,0.007943282347242812,1,0.6529877180000767
21,647,Control,0.0,0.1,0.006309573444801929,0,0.6215605719989981
21,648,Control,0.0,0.1,0.007943282347242812,0,0.7367149300007441
21,649,Equal,0.25,0.25,0.009999999999999995,0,0.6885409590031486
21,650,Increase,0.1,0.25,0.007943282347242812,0,99
21,651,Decrease,0.25,0.1,0.00501187233627272,0,99
21,652,Equal,0.1,0.1,0.006309573444801929,0,0.56024966699988
21,653,Control,0.0,0.25,0.012589254117941666,0,0.7085708449994854
21,654,Increase,0.1,0.25,0.009999999999999997,0,0.45557016500242753
21,655,Equal,0.1,0.1,0.007943282347242812,0,0.5865095849985664
21,656,Equal,0.1,0.1,0.009999999999999997,0,0.7021200240014878
21,657,Control,0.0,0.25,0.015848931924611127,1,0.721296457999415
21,658,Control,0.0,0.1,0.009999999999999997,0,0.5484540629986441
21,659,Control,0.0,0.25,0.012589254117941666,0,0.6488788120004756
21,660,Decrease,0.25,0.1,0.006309573444801929,0,0.6898959129975992
21,661,Increase,0.1,0.25,0.012589254117941668,0,0.7412111809971975
21,662,Control,0.0,0.1,0.012589254117941668,1,0.8130011000030208
21,663,Control,0.0,0.1,0.009999999999999997,1,0.9762978910002857
21,664,Equal,0.1,0.1,0.012589254117941668,1,0.7297199579988956
21,665,Decrease,0.25,0.1,0.007943282347242812,0,0.6138602220016764
21,666,Equal_null,0.25,0.25,0.015848931924611127,1,0.7129044780012919
21,667,Decrease,0.25,0.1,0.009999999999999997,1,0.7552362410024216
21,668,Control,0.0,0.25,0.015848931924611127,1,0.7824269339980674
21,669,Increase,0.1,0.25,0.01584893192461113,1,0.7456342730001779
21,670,Equal,0.1,0.1,0.009999999999999997,1,0.9329229859977204
21,671,Control,0.0,0.25,0.012589254117941666,0,0.8176421479984128
21,672,Equal,0.1,0.1,0.007943282347242812,0,0.8453481969991117
21,673,Equal,0.1,0.1,0.009999999999999997,0,0.6930600439991395
21,674,Equal,0.1,0.1,0.012589254117941668,1,0.6723712500024703
21,675,Control,0.0,0.25,0.015848931924611127,1,0.6257400630020129
21,676,Equal,0.25,0.25,0.012589254117941666,0,0.6600819339982991
21,677,Control,0.0,0.25,0.012589254117941666,1,0.869896655996854
21,678,Increase,0.1,0.25,0.012589254117941668,1,0.808979420002288
21,679,Control,0.0,0.25,0.009999999999999995,1,0.7163170069979969
21,680,Control,0.0,0.25,0.00794328234724281,1,0.6636925419988984
21,681,Equal,0.25,0.25,0.015848931924611127,1,0.595830168997054
21,682,Decrease,0.25,0.1,0.007943282347242812,0,0.6308507130015641
21,683,Equal_null,0.25,0.25,0.012589254117941666,1,0.6661752530017111
21,684,Equal_null,0.1,0.1,0.015848931924611127,0,0.581217958999332
21,685,Decrease,0.25,0.1,0.009999999999999997,1,0.6733120549979503
21,686,Decrease,0.25,0.1,0.007943282347242812,1,0.7455815840003197
21,687,Equal,0.1,0.1,0.009999999999999997,1,0.6926454239983286
21,688,Control,0.0,0.25,0.0063095734448019285,0,0.7982404729991686
21,689,Control,0.0,0.1,0.007943282347242812,0,0.7934102300023369
21,690,Equal,0.1,0.1,0.007943282347242812,0,0.7302049270001589
21,691,Control,0.0,0.25,0.00794328234724281,0,0.6698380150010053
21,692,Equal,0.1,0.1,0.009999999999999997,1,0.6244028949986387
21,693,Increase,0.1,0.25,0.009999999999999997,0,0.8357477440004004
21,694,Equal,0.25,0.25,0.012589254117941666,0,0.6311943180007802
21,695,Equal,0.1,0.1,0.007943282347242812,1,0.6265247410010488
21,696,Control,0.0,0.25,0.009999999999999995,0,0.6448211560018535
21,697,Decrease,0.25,0.1,0.006309573444801929,0,0.8668063500008429
21,698,Increase,0.1,0.25,0.012589254117941668,0,0.6779505829981645
21,699,Equal,0.1,0.1,0.006309573444801929,0,0.5820462499978021
21,700,Control,0.0,0.1,0.009999999999999997,0,0.561288519998925
21,701,Equal,0.25,0.25,0.015848931924611127,1,0.6106172180006979
21,702,Decrease_null,0.25,0.1,0.01995262314968879,1,0.7418644339995808
21,703,Equal,0.25,0.25,0.012589254117941666,0,0.7114173949994438
21,704,Increase_null,0.1,0.25,0.015848931924611127,0,0.7791971139995439
21,705,Equal,0.25,0.25,0.015848931924611127,1,1.00632448900069
21,706,Control,0.0,0.25,0.012589254117941666,0,0.7696699530024489
21,707,Decrease,0.25,0.1,0.007943282347242812,1,0.7342091879982036
21,708,Control,0.0,0.25,0.015848931924611127,0,0.8423130430019228
21,709,Equal,0.1,0.1,0.007943282347242812,1,0.7551826769995387
21,710,Control,0.0,0.25,0.01995262314968879,1,0.6392615279983147
21,711,Equal,0.25,0.25,0.012589254117941666,1,0.8745069770011469
21,712,Equal_null,0.25,0.25,0.009999999999999995,0,0.8185551499991561
21,713,Decrease,0.25,0.1,0.006309573444801929,0,0.7657613099981972
21,714,Increase,0.1,0.25,0.01584893192461113,1,0.7510427300003357
21,715,Equal,0.1,0.1,0.006309573444801929,0,0.738260096997692
21,716,Increase,0.1,0.25,0.012589254117941668,0,0.6683140870009083
21,717,Control,0.0,0.25,0.015848931924611127,1,0.7515182210008788
21,718,Decrease,0.25,0.1,0.007943282347242812,1,0.8106894490010745
21,719,Control,0.0,0.25,0.012589254117941666,1,0.5978721419996873
21,720,Equal,0.1,0.1,0.007943282347242812,1,0.596023903999594
21,721,Control,0.0,0.1,0.012589254117941668,1,0.6799505729977682
21,722,Equal,0.1,0.1,0.006309573444801929,1,0.7451686099993822
21,723,Control_null,0.0,0.25,0.01995262314968879,1,0.5561622810018889
21,724,Equal,0.1,0.1,0.00501187233627272,0,0.6603861319999851
21,725,Increase,0.1,0.25,0.01584893192461113,1,0.7115912859990203
21,726,Control,0.0,0.25,0.009999999999999995,0,0.5679235190000327
21,727,Equal,0.25,0.25,0.009999999999999995,0,0.5468313009987469
21,728,Control,0.0,0.25,0.012589254117941666,0,0.6462905589978618
21,729,Control,0.0,0.1,0.009999999999999997,0,0.649351182000828
21,730,Decrease,0.25,0.1,0.006309573444801929,0,0.6605179850012064
21,731,Increase,0.1,0.25,0.012589254117941668,1,0.8718195539986482
21,732,Increase,0.1,0.25,0.009999999999999997,0,0.6998484460018517
21,733,Control,0.0,0.25,0.015848931924611127,1,0.809086078999826
21,734,Equal,0.25,0.25,0.012589254117941666,0,0.8532340620004106
21,735,Control,0.0,0.1,0.012589254117941668,1,0.6944439609978872
21,736,Decrease,0.25,0.1,0.007943282347242812,0,0.6416710109988344
21,737,Control_null,0.0,0.25,0.015848931924611127,1,0.9149139059991285
21,738,Increase,0.1,0.25,0.012589254117941668,1,0.6780039250006666
21,739,Equal_null,0.1,0.1,0.01995262314968879,1,0.7021959880003124
21,740,Control,0.0,0.1,0.009999999999999997,0,0.7784476410015486
21,741,Control,0.0,0.1,0.012589254117941668,1,0.6675942049987498
21,742,Control,0.0,0.25,0.012589254117941666,0,0.8080301950030844
21,743,Increase_null,0.1,0.25,0.01995262314968879,1,1.0109189390022948
21,744,Control,0.0,0.1,0.009999999999999997,0,0.741209683001216
21,745,Equal,0.25,0.25,0.015848931924611127,1,0.649792353000521
21,746,Control,0.0,0.25,0.015848931924611127,1,0.6869497080006113
21,747,Control,0.0,0.25,0.012589254117941666,1,0.5850087170001643
21,748,Equal,0.25,0.25,0.012589254117941666,0,0.44393206400127383
21,749,Increase,0.1,0.25,0.009999999999999997,1,0.5750172459993337
21,750,Control,0.0,0.25,0.009999999999999995,1,0.8393689249969611
21,751,Control,0.0,0.1,0.012589254117941668,1,0.7703132550013834
21,752,Control,0.0,0.25,0.00794328234724281,1,0.9545557029996417
21,753,Equal,0.25,0.25,0.015848931924611127,1,0.6777680170016538
21,754,Decrease_null,0.25,0.1,0.015848931924611127,0,0.7129698370008555
21,755,Control,0.0,0.1,0.009999999999999997,0,0.6442860060014937
21,756,Decrease,0.25,0.1,0.009999999999999997,1,0.5033485910025775
21,757,Control,0.0,0.1,0.012589254117941668,0,0.6184313209996617
21,758,Control,0.0,0.25,0.0063095734448019285,0,0.6469741920009255
21,759,Control,0.0,0.1,0.01584893192461113,1,0.6034588209986396
21,760,Decrease,0.25,0.1,0.007943282347242812,0,0.5982313819986302
21,761,Decrease,0.25,0.1,0.009999999999999997,1,0.6334915709994675
21,762,Equal,0.25,0.25,0.012589254117941666,0,0.6919641460008279
21,763,Control,0.0,0.25,0.00794328234724281,1,0.4606051800001296
21,764,Decrease_null,0.25,0.1,0.01995262314968879,1,0.6237993169997935
21,765,Control,0.0,0.1,0.012589254117941668,1,0.6172297990015068
21,766,Increase,0.1,0.25,0.007943282347242812,0,0.7163897639984498
21,767,Decrease,0.25,0.1,0.007943282347242812,1,0.751635181997699
21,768,Control,0.0,0.1,0.009999999999999997,1,0.4584159290025127
21,769,Decrease,0.25,0.1,0.006309573444801929,0,0.40570678399672033
21,770,Equal,0.25,0.25,0.015848931924611127,1,0.7050801719997253
21,771,Increase,0.1,0.25,0.009999999999999997,0,0.8216207939985907
21,772,Increase,0.1,0.25,0.012589254117941668,1,0.61078779500167
21,773,Equal,0.25,0.25,0.012589254117941666,1,0.5268365659976553
21,774,Control,0.0,0.1,0.007943282347242812,1,0.5759810130002734
21,775,Equal,0.25,0.25,0.009999999999999995,0,0.5238052120002976
21,776,Control,0.0,0.1,0.006309573444801929,0,0.4842069480000646
21,777,Increase_null,0.1,0.25,0.015848931924611127,1,0.5994589190013357
21,778,Equal,0.25,0.25,0.012589254117941666,0,0.5044099469996581
21,779,Increase,0.1,0.25,0.009999999999999997,0,0.611657594999997
21,780,Decrease,0.25,0.1,0.007943282347242812,0,0.6389697560007335
21,781,Control,0.0,0.1,0.007943282347242812,0,0.865747621999617
21,782,Increase,0.1,0.25,0.012589254117941668,0,0.652474123002321
21,783,Increase,0.1,0.25,0.01584893192461113,1,0.7355252389970701
21,784,Increase,0.1,0.25,0.012589254117941668,0,0.8120606530028454
21,785,Decrease,0.25,0.1,0.009999999999999997,1,0.672123319000093
21,786,Equal,0.25,0.25,0.015848931924611127,1,0.6776909219988738
21,787,Decrease,0.25,0.1,0.007943282347242812,0,0.6303631470000255
21,788,Increase,0.1,0.25,0.01584893192461113,1,0.6572434049994627
21,789,Decrease,0.25,0.1,0.009999999999999997,1,0.7776610040018568
21,790,Decrease,0.25,0.1,0.007943282347242812,1,0.6845379369988223
21,791,Decrease,0.25,0.1,0.006309573444801929,0,0.7180225679985597
21,792,Control_null,0.0,0.1,0.015848931924611127,1,0.8239767270024458
21,793,Equal,0.25,0.25,0.012589254117941666,0,0.7792287760021281
21,794,Equal,0.25,0.25,0.015848931924611127,1,0.7025116010008787
21,795,Equal,0.25,0.25,0.012589254117941666,1,0.7457567050005309
21,796,Increase,0.1,0.25,0.012589254117941668,1,0.7723296280018985
21,797,Decrease,0.25,0.1,0.007943282347242812,0,0.6975030949979555
21,798,Increase,0.1,0.25,0.009999999999999997,0,0.9571936909997021
21,799,Equal,0.25,0.25,0.009999999999999995,0,0.83139067799857
21,800,Increase,0.1,0.25,0.012589254117941668,0,0.5546444700012216
21,801,Decrease,0.25,0.1,0.009999999999999997,1,0.6460071459987375
21,802,Decrease,0.25,0.1,0.007943282347242812,0,0.8699890330026392
21,803,Increase,0.1,0.25,0.01584893192461113,1,0.6249775190008222
21,804,Increase,0.1,0.25,0.012589254117941668,1,0.6982669700009865
21,805,Equal,0.25,0.25,0.012589254117941666,0,0.7737170159998641
21,806,Equal,0.25,0.25,0.015848931924611127,0,0.5047240249987226
21,807,Decrease,0.25,0.1,0.009999999999999997,1,0.7640184910014796
21,808,Equal,0.25,0.25,0.01995262314968879,1,0.6950590559972625
21,809,Decrease,0.25,0.1,0.007943282347242812,1,0.651304376002372
21,810,Decrease,0.25,0.1,0.006309573444801929,1,0.686593622998771
21,811,Equal,0.25,0.25,0.015848931924611127,1,0.5563728019988048
21,812,Equal,0.25,0.25,0.012589254117941666,0,0.6848768089985242
21,813,Equal,0.25,0.25,0.015848931924611127,1,0.728195103998587
21,814,Equal,0.25,0.25,0.012589254117941666,1,0.6275092370015045
21,815,Equal,0.25,0.25,0.009999999999999995,0,0.6514756469987333
21,816,Equal,0.25,0.25,0.012589254117941666,0,0.6317343810005696
21,817,Decrease_null,0.25,0.1,0.015848931924611127,0,0.5927856890011753
21,818,Equal,0.25,0.25,0.015848931924611127,1,0.5240801649997593
21,819,Equal,0.25,0.25,0.012589254117941666,1,0.6390700689989899
21,820,Equal,0.25,0.25,0.009999999999999995,1,0.48235766799916746
21,821,Equal,0.25,0.25,0.00794328234724281,0,0.7346284160012146
21,822,Equal,0.25,0.25,0.009999999999999995,0,1.0738532670002314
21,823,Equal,0.25,0.25,0.012589254117941666,1,0.5976316349988338
21,824,Equal,0.25,0.25,0.009999999999999995,1,0.8561804680030036
21,825,Equal,0.25,0.25,0.00794328234724281,0,0.7304474090014992
21,826,Equal,0.25,0.25,0.009999999999999995,0,0.6223630300009972
21,827,Control_null,0.0,0.25,0.012589254117941666,0,0.7695478220011864
21,828,Equal,0.25,0.25,0.012589254117941666,0,0.6581511039985344
21,829,Control_null,0.0,0.25,0.015848931924611127,0,0.5971525339991786
21,830,Increase_null,0.1,0.25,0.012589254117941666,1,0.815239143998042
21,831,Control_null,0.0,0.25,0.01995262314968879,1,0.4905282799991255
21,832,Decrease_null,0.25,0.1,0.01995262314968879,1,0.6377021279986366
21,833,Equal_null,0.1,0.1,0.015848931924611127,1,0.7448906019999413
21,834,Control_null,0.0,0.1,0.012589254117941666,1,0.5563551239974913
21,835,Increase_null,0.1,0.25,0.009999999999999995,1,0.632312121000723
21,836,Equal_null,0.1,0.1,0.012589254117941666,1,0.5782513619997189
21,837,Increase_null,0.1,0.25,0.00794328234724281,1,0.3426096229995892
21,838,Control_null,0.0,0.1,0.009999999999999995,1,0.5527132730021549
21,839,Control_null,0.0,0.1,0.00794328234724281,1,0.6419711879971146
