Participant_Number,Trial_Number,Condition,FC_distal,FC_proximal,Target_Contrast,Correct_Response,Reaction_Time
28,0,Equal,0.25,0.25,0.1,1,0.9779732450006122
28,1,Increase_null,0.1,0.25,0.1,1,0.7094461469969247
28,2,Control_null,0.0,0.25,0.1,1,0.40057963199797086
28,3,Increase,0.1,0.25,0.1,1,0.4277096400001028
28,4,Equal,0.1,0.1,0.1,1,0.4093581089982763
28,5,Control,0.0,0.25,0.1,1,0.35736912100037443
28,6,Decrease,0.25,0.1,0.1,1,0.3115626339968003
28,7,Equal,0.25,0.25,0.07943282347242815,1,0.21854298299876973
28,8,Decrease,0.25,0.1,0.07943282347242815,1,0.3157217670013779
28,9,Equal,0.1,0.1,0.07943282347242815,1,0.3032193460021517
28,10,Equal,0.1,0.1,0.06309573444801932,1,0.20694289799939725
28,11,Control,0.0,0.25,0.07943282347242815,1,0.4182744690006075
28,12,Control,0.0,0.25,0.06309573444801932,1,0.22964563599816756
28,13,Decrease,0.25,0.1,0.06309573444801932,1,0.17677979199652327
28,14,Increase,0.1,0.25,0.07943282347242815,1,0.4598219670006074
28,15,Increase,0.1,0.25,0.06309573444801932,1,0.3831064219994005
28,16,Increase,0.1,0.25,0.05011872336272722,1,0.33035179500075174
28,17,Increase,0.1,0.25,0.03981071705534971,1,0.33600756300074863
28,18,Control,0.0,0.1,0.1,1,0.3156829390027269
28,19,Increase,0.1,0.25,0.031622776601683784,1,0.15673917000094661
28,20,Decrease_null,0.25,0.1,0.1,1,0.6809198350019869
28,21,Decrease,0.25,0.1,0.05011872336272722,1,0.4652105709974421
28,22,Decrease,0.25,0.1,0.03981071705534971,1,0.46853112999815494
28,23,Decrease,0.25,0.1,0.031622776601683784,1,0.31624228700093227
28,24,Equal,0.1,0.1,0.05011872336272722,1,0.4397813909999968
28,25,Equal,0.25,0.25,0.06309573444801932,1,0.26002969199907966
28,26,Control,0.0,0.25,0.05011872336272722,1,0.27814520000174525
28,27,Equal,0.25,0.25,0.05011872336272722,1,0.4811456850002287
28,28,Equal,0.25,0.25,0.03981071705534971,1,0.3734290130014415
28,29,Control_null,0.0,0.1,0.1,1,0.7608056569988548
28,30,Equal,0.25,0.25,0.031622776601683784,1,0.693380636999791
28,31,Decrease,0.25,0.1,0.02511886431509579,1,0.48237975600204663
28,32,Increase,0.1,0.25,0.02511886431509579,1,0.32335982699805754
28,33,Increase,0.1,0.25,0.01995262314968879,1,0.6143524620019889
28,34,Increase,0.1,0.25,0.015848931924611127,1,0.4863061460018798
28,35,Equal,0.25,0.25,0.02511886431509579,1,0.265878858997894
28,36,Equal,0.1,0.1,0.03981071705534971,1,0.41893650199926924
28,37,Decrease,0.25,0.1,0.01995262314968879,1,0.5578820920018188
28,38,Decrease,0.25,0.1,0.015848931924611127,0,0.6253053180007555
28,39,Control,0.0,0.1,0.07943282347242815,1,0.30063513700224576
28,40,Increase,0.1,0.25,0.012589254117941666,0,0.6479263410001295
28,41,Equal,0.1,0.1,0.031622776601683784,1,0.47512366700175335
28,42,Equal,0.25,0.25,0.01995262314968879,1,0.5657373940011894
28,43,Increase,0.1,0.25,0.015848931924611127,1,0.5877190829996835
28,44,Control,0.0,0.25,0.03981071705534971,1,0.4878756389989576
28,45,Control_null,0.0,0.1,0.07943282347242815,1,0.5857880429975921
28,46,Increase,0.1,0.25,0.012589254117941666,0,0.4369013640025514
28,47,Equal,0.25,0.25,0.015848931924611127,0,0.18086473400035175
28,48,Control,0.0,0.1,0.06309573444801932,1,0.40808568699867465
28,49,Control,0.0,0.1,0.05011872336272722,1,0.185098227000708
28,50,Equal,0.25,0.25,0.01995262314968879,0,0.6926100170021527
28,51,Equal,0.1,0.1,0.02511886431509579,1,0.4396961329985061
28,52,Equal,0.1,0.1,0.01995262314968879,1,0.37908380599765223
28,53,Equal,0.25,0.25,0.025118864315095794,1,0.4861978930020996
28,54,Control,0.0,0.25,0.031622776601683784,1,0.3213340349975624
28,55,Equal,0.1,0.1,0.015848931924611127,1,0.3894877359998645
28,56,Equal,0.1,0.1,0.012589254117941666,0,0.8982506540014583
28,57,Control,0.0,0.25,0.02511886431509579,1,0.3421823040007439
28,58,Control,0.0,0.25,0.01995262314968879,1,0.3521009950018197
28,59,Control_null,0.0,0.25,0.07943282347242815,1,0.914423023998097
28,60,Decrease,0.25,0.1,0.01995262314968879,1,0.2512628690019483
28,61,Control,0.0,0.25,0.015848931924611127,1,0.5907172810002521
28,62,Control,0.0,0.1,0.03981071705534971,1,0.28672518999883323
28,63,Equal,0.1,0.1,0.015848931924611127,1,0.7777083270011644
28,64,Control,0.0,0.1,0.031622776601683784,1,0.6782860099992831
28,65,Control,0.0,0.25,0.012589254117941666,0,0.7453298549989995
28,66,Decrease,0.25,0.1,0.015848931924611127,1,0.5399059479968855
28,67,Equal,0.25,0.25,0.01995262314968879,1,0.3678728909981146
28,68,Increase,0.1,0.25,0.015848931924611127,1,0.44298603599963826
28,69,Control,0.0,0.25,0.015848931924611127,1,0.2556476780009689
28,70,Increase,0.1,0.25,0.012589254117941666,0,0.5088812230023905
28,71,Decrease,0.25,0.1,0.012589254117941666,0,0.5403054970010999
28,72,Decrease_null,0.25,0.1,0.07943282347242815,1,1.0168201119995501
28,73,Control,0.0,0.25,0.012589254117941666,0,0.480859295999835
28,74,Equal,0.1,0.1,0.012589254117941666,0,0.6681319890012674
28,75,Equal,0.1,0.1,0.015848931924611127,0,0.42921419300182606
28,76,Equal,0.25,0.25,0.015848931924611127,0,0.4486006670013012
28,77,Control,0.0,0.1,0.02511886431509579,1,0.5397123990005639
28,78,Increase,0.1,0.25,0.015848931924611127,1,0.3668277689976094
28,79,Control,0.0,0.1,0.01995262314968879,1,0.28167228600068484
28,80,Increase,0.1,0.25,0.012589254117941666,0,0.9342007369996281
28,81,Control,0.0,0.1,0.015848931924611127,1,0.34540100899903337
28,82,Control,0.0,0.1,0.012589254117941666,1,0.5579186310023942
28,83,Equal,0.1,0.1,0.01995262314968879,1,0.3061017489999358
28,84,Control,0.0,0.1,0.009999999999999995,0,0.6750354780015186
28,85,Control,0.0,0.1,0.012589254117941666,0,0.7662242980004521
28,86,Equal,0.1,0.1,0.015848931924611127,1,0.31831617199713946
28,87,Control,0.0,0.1,0.015848931924611127,1,0.633471103003103
28,88,Increase,0.1,0.25,0.015848931924611127,1,0.3466221230009978
28,89,Equal,0.25,0.25,0.01995262314968879,1,0.27687023100224906
28,90,Increase_null,0.1,0.25,0.07943282347242815,1,0.7040150929969968
28,91,Decrease,0.25,0.1,0.015848931924611127,1,0.4673021680027887
28,92,Control,0.0,0.1,0.012589254117941666,0,0.9265818109997781
28,93,Control,0.0,0.25,0.015848931924611127,1,0.24179137600003742
28,94,Control,0.0,0.1,0.015848931924611127,1,0.6923795160000736
28,95,Decrease,0.25,0.1,0.012589254117941666,1,0.28008154700000887
28,96,Equal,0.25,0.25,0.015848931924611127,1,0.31078263300150866
28,97,Equal,0.1,0.1,0.012589254117941666,1,0.19033956899875193
28,98,Decrease,0.25,0.1,0.009999999999999995,0,0.5775350549993163
28,99,Control,0.0,0.25,0.012589254117941666,0,99
28,100,Equal,0.1,0.1,0.009999999999999995,0,0.38210801600143895
28,101,Increase_null,0.1,0.25,0.06309573444801932,0,0.16719601599834277
28,102,Increase,0.1,0.25,0.012589254117941666,0,0.4022443319990998
28,103,Equal,0.25,0.25,0.012589254117941666,0,0.2529394500015769
28,104,Increase,0.1,0.25,0.015848931924611127,1,0.4242720369984454
28,105,Equal,0.25,0.25,0.015848931924611127,1,0.3009134720014117
28,106,Control,0.0,0.1,0.012589254117941666,1,0.736101107999275
28,107,Increase,0.1,0.25,0.012589254117941666,0,0.36320170600083657
28,108,Increase,0.1,0.25,0.015848931924611127,1,0.5744248319970211
28,109,Control,0.0,0.1,0.009999999999999995,1,0.3947534400031145
28,110,Control,0.0,0.1,0.00794328234724281,1,1.0595673490024637
28,111,Equal,0.1,0.1,0.012589254117941666,0,0.3427580650022719
28,112,Equal,0.1,0.1,0.015848931924611127,0,0.407209678000072
28,113,Control_null,0.0,0.25,0.06309573444801932,1,0.3863297469979443
28,114,Increase,0.1,0.25,0.012589254117941666,0,0.5564703679992817
28,115,Increase,0.1,0.25,0.015848931924611127,0,0.8476795950009546
28,116,Equal_null,0.1,0.1,0.1,1,0.3467243580016657
28,117,Equal,0.1,0.1,0.01995262314968879,0,0.26201457800198114
28,118,Control,0.0,0.25,0.015848931924611127,1,0.4561047469978803
28,119,Decrease,0.25,0.1,0.012589254117941666,0,0.45912292700086255
28,120,Increase,0.1,0.25,0.01995262314968879,0,0.35003119300017715
28,121,Increase_null,0.1,0.25,0.07943282347242814,1,0.4014931570018234
28,122,Equal,0.25,0.25,0.012589254117941666,0,0.3465468549984507
28,123,Control,0.0,0.25,0.012589254117941666,0,0.33377403499980574
28,124,Equal,0.1,0.1,0.025118864315095794,0,99
28,125,Control,0.0,0.25,0.015848931924611127,0,0.7049868349968165
28,126,Decrease,0.25,0.1,0.015848931924611127,0,0.5471141109992459
28,127,Control,0.0,0.25,0.01995262314968879,0,0.3903862810002465
28,128,Control,0.0,0.25,0.025118864315095794,0,0.19476013800158398
28,129,Decrease,0.25,0.1,0.01995262314968879,1,0.4539908650003781
28,130,Increase,0.1,0.25,0.025118864315095794,1,0.2401292119975551
28,131,Equal,0.25,0.25,0.015848931924611127,1,0.4044106280016422
28,132,Control,0.0,0.1,0.0063095734448019285,0,0.47398737799812807
28,133,Increase,0.1,0.25,0.01995262314968879,1,0.6588400000000547
28,134,Increase,0.1,0.25,0.015848931924611127,1,0.4788552139980311
28,135,Decrease,0.25,0.1,0.015848931924611127,1,0.463122316999943
28,136,Decrease,0.25,0.1,0.012589254117941666,0,99
28,137,Equal,0.25,0.25,0.012589254117941666,1,0.882594473001518
28,138,Equal,0.1,0.1,0.031622776601683784,1,0.35753679999834276
28,139,Equal,0.25,0.25,0.009999999999999995,0,0.7036688210027933
28,140,Decrease,0.25,0.1,0.015848931924611127,1,0.47590657800174085
28,141,Decrease,0.25,0.1,0.012589254117941666,1,0.7192141619998438
28,142,Control,0.0,0.25,0.031622776601683784,1,0.3222897240011662
28,143,Increase,0.1,0.25,0.012589254117941666,0,0.5750863200009917
28,144,Control,0.0,0.1,0.00794328234724281,0,0.6507985130010638
28,145,Decrease,0.25,0.1,0.009999999999999995,0,0.6869867390014406
28,146,Control,0.0,0.25,0.02511886431509579,1,0.4801506910007447
28,147,Decrease,0.25,0.1,0.012589254117941666,1,0.8670518479993916
28,148,Increase,0.1,0.25,0.015848931924611127,1,0.5720871939993231
28,149,Control,0.0,0.25,0.01995262314968879,1,0.6796830189996399
28,150,Decrease_null,0.25,0.1,0.06309573444801932,1,0.7996779450004396
28,151,Equal,0.25,0.25,0.012589254117941666,1,0.6749785040010465
28,152,Equal,0.1,0.1,0.02511886431509579,0,0.43716886400216026
28,153,Decrease,0.25,0.1,0.009999999999999995,0,99
28,154,Control,0.0,0.1,0.009999999999999995,0,0.18066740699941874
28,155,Increase,0.1,0.25,0.012589254117941666,0,0.7119623029975628
28,156,Increase,0.1,0.25,0.015848931924611127,1,0.48410138200051733
28,157,Equal,0.25,0.25,0.009999999999999995,1,0.8576143620011862
28,158,Increase,0.1,0.25,0.012589254117941666,0,99
28,159,Equal,0.1,0.1,0.031622776601683784,0,0.23857541300094454
28,160,Increase,0.1,0.25,0.015848931924611127,1,0.4256087520006986
28,161,Equal,0.25,0.25,0.00794328234724281,0,99
28,162,Control,0.0,0.25,0.015848931924611127,0,0.33421254999848315
28,163,Control,0.0,0.25,0.01995262314968879,1,0.42231618000005255
28,164,Equal,0.1,0.1,0.03981071705534971,1,0.28136635099872365
28,165,Control_null,0.0,0.1,0.06309573444801932,1,0.6196089129989559
28,166,Control,0.0,0.25,0.015848931924611127,0,0.6464519450018997
28,167,Decrease,0.25,0.1,0.012589254117941666,0,0.5859187210007804
28,168,Equal,0.25,0.25,0.009999999999999995,0,0.7652543859985599
28,169,Increase,0.1,0.25,0.012589254117941666,0,0.6587592709984165
28,170,Increase_null,0.1,0.25,0.06309573444801932,1,0.359192644002178
28,171,Equal_null,0.25,0.25,0.1,1,0.1233632410003338
28,172,Increase,0.1,0.25,0.015848931924611127,0,0.3479163880001579
28,173,Decrease,0.25,0.1,0.015848931924611127,1,0.7511425320008129
28,174,Equal,0.25,0.25,0.012589254117941666,0,0.5762471329981054
28,175,Control,0.0,0.1,0.012589254117941666,0,0.4995804540012614
28,176,Equal,0.1,0.1,0.031622776601683784,1,0.29979558600098244
28,177,Control,0.0,0.1,0.015848931924611127,0,0.7506918439976289
28,178,Control,0.0,0.1,0.01995262314968879,1,0.5461122759988939
28,179,Decrease,0.25,0.1,0.012589254117941666,0,0.4612648900001659
28,180,Equal,0.1,0.1,0.02511886431509579,1,0.49629884699970717
28,181,Equal,0.25,0.25,0.015848931924611127,1,0.45949893799843267
28,182,Control,0.0,0.25,0.01995262314968879,1,0.5602908210021269
28,183,Equal,0.25,0.25,0.012589254117941666,0,0.8282537560007768
28,184,Control,0.0,0.25,0.015848931924611127,1,0.3775687819979794
28,185,Control,0.0,0.1,0.015848931924611127,1,0.3543985540018184
28,186,Equal,0.25,0.25,0.015848931924611127,1,0.31745571099963854
28,187,Control,0.0,0.25,0.012589254117941666,0,0.5817162780003855
28,188,Increase,0.1,0.25,0.01995262314968879,1,0.6166837899982056
28,189,Increase,0.1,0.25,0.015848931924611127,1,0.6261197489984625
28,190,Equal,0.25,0.25,0.012589254117941666,0,0.7959123789987643
28,191,Equal,0.1,0.1,0.01995262314968879,1,0.30325940499824355
28,192,Equal,0.1,0.1,0.015848931924611127,1,0.3623897629986459
28,193,Equal,0.1,0.1,0.012589254117941666,1,0.43774237199977506
28,194,Control,0.0,0.1,0.012589254117941666,0,0.7292650189992855
28,195,Control,0.0,0.1,0.015848931924611127,0,0.8213588540020282
28,196,Increase,0.1,0.25,0.012589254117941666,0,0.35476369699972565
28,197,Equal,0.1,0.1,0.009999999999999995,0,0.23191441299786675
28,198,Control,0.0,0.25,0.015848931924611127,1,0.43268603999968036
28,199,Control,0.0,0.25,0.012589254117941666,1,0.988064483000926
28,200,Equal,0.25,0.25,0.015848931924611127,1,0.6840701830005855
28,201,Increase,0.1,0.25,0.015848931924611127,0,99
28,202,Control,0.0,0.25,0.009999999999999995,0,0.16853089700089185
28,203,Control,0.0,0.25,0.012589254117941666,0,0.20268564299840364
28,204,Decrease,0.25,0.1,0.015848931924611127,1,0.8779613970000355
28,205,Increase,0.1,0.25,0.01995262314968879,1,0.3609563230020285
28,206,Equal,0.1,0.1,0.012589254117941666,1,0.4043442269976367
28,207,Equal,0.1,0.1,0.009999999999999995,1,0.3916143970018311
28,208,Control,0.0,0.25,0.015848931924611127,1,0.6521047419992101
28,209,Control,0.0,0.25,0.012589254117941666,0,99
28,210,Control,0.0,0.25,0.015848931924611127,0,0.5901216579986794
28,211,Increase,0.1,0.25,0.015848931924611127,0,0.2621556310004962
28,212,Equal,0.25,0.25,0.012589254117941666,0,0.6251271319997613
28,213,Increase,0.1,0.25,0.01995262314968879,0,0.25063326400049846
28,214,Control,0.0,0.1,0.01995262314968879,1,0.573876393998944
28,215,Increase,0.1,0.25,0.025118864315095794,1,0.33409204200142995
28,216,Decrease,0.25,0.1,0.012589254117941666,1,0.45707848999882117
28,217,Equal,0.25,0.25,0.015848931924611127,0,1.156327724998846
28,218,Control,0.0,0.1,0.015848931924611127,1,0.8154712049981754
28,219,Equal,0.25,0.25,0.01995262314968879,1,0.3627557120016718
28,220,Equal,0.1,0.1,0.00794328234724281,1,0.39789908600141644
28,221,Control,0.0,0.1,0.012589254117941666,1,0.6906971429998521
28,222,Increase,0.1,0.25,0.01995262314968879,1,0.4157984049998049
28,223,Equal,0.25,0.25,0.015848931924611127,1,0.7397205130000657
28,224,Control,0.0,0.1,0.009999999999999995,1,0.8763169979974919
28,225,Increase,0.1,0.25,0.015848931924611127,0,1.159816857001715
28,226,Control,0.0,0.1,0.00794328234724281,0,0.768967584001075
28,227,Increase,0.1,0.25,0.01995262314968879,0,0.3959110249998048
28,228,Equal,0.1,0.1,0.0063095734448019285,0,0.8854829070005508
28,229,Increase,0.1,0.25,0.025118864315095794,0,99
28,230,Increase_null,0.1,0.25,0.05011872336272722,1,0.8198037700021814
28,231,Equal,0.1,0.1,0.00794328234724281,0,0.3266206650005188
28,232,Increase,0.1,0.25,0.031622776601683784,0,1.2740666870013229
28,233,Increase,0.1,0.25,0.03981071705534971,1,0.5330172809990472
28,234,Decrease,0.25,0.1,0.009999999999999995,0,0.6179809709974506
28,235,Increase,0.1,0.25,0.031622776601683784,1,0.35823784099920886
28,236,Equal,0.1,0.1,0.009999999999999995,0,0.7392823869995482
28,237,Decrease,0.25,0.1,0.012589254117941666,0,0.5551207000025897
28,238,Control,0.0,0.25,0.01995262314968879,0,0.9021810100020957
28,239,Control,0.0,0.1,0.009999999999999995,0,0.6544088330010709
28,240,Equal,0.25,0.25,0.012589254117941666,0,1.2112441819990636
28,241,Decrease,0.25,0.1,0.015848931924611127,1,0.4793311729990819
28,242,Equal,0.1,0.1,0.012589254117941666,0,0.4396287170020514
28,243,Control,0.0,0.1,0.012589254117941666,0,0.11503383300077985
28,244,Increase,0.1,0.25,0.02511886431509579,1,0.4940799540017906
28,245,Equal,0.25,0.25,0.015848931924611127,1,0.3592278489995806
28,246,Control,0.0,0.25,0.025118864315095794,1,0.34648557999753393
28,247,Decrease,0.25,0.1,0.012589254117941666,1,0.5666937869973481
28,248,Equal,0.25,0.25,0.012589254117941666,0,0.3698992249992443
28,249,Equal,0.1,0.1,0.015848931924611127,1,0.33300387400231557
28,250,Decrease,0.25,0.1,0.009999999999999995,0,0.503829469998891
28,251,Equal,0.1,0.1,0.012589254117941666,0,0.4033989630006545
28,252,Decrease,0.25,0.1,0.012589254117941666,0,0.552925347998098
28,253,Decrease,0.25,0.1,0.015848931924611127,1,0.26484502799939946
28,254,Decrease,0.25,0.1,0.012589254117941666,0,0.715938601999369
28,255,Equal,0.1,0.1,0.015848931924611127,0,0.1170202480025182
28,256,Control,0.0,0.1,0.015848931924611127,0,0.5122360009991098
28,257,Increase,0.1,0.25,0.01995262314968879,1,0.4835617140015529
28,258,Equal,0.25,0.25,0.015848931924611127,0,0.7484307970007649
28,259,Equal,0.25,0.25,0.01995262314968879,1,0.567875657001423
28,260,Decrease,0.25,0.1,0.015848931924611127,1,0.42800803299905965
28,261,Equal,0.1,0.1,0.01995262314968879,1,0.4442946960007248
28,262,Equal_null,0.1,0.1,0.07943282347242815,1,0.5534312999989197
28,263,Decrease,0.25,0.1,0.012589254117941666,0,0.15749939600209473
28,264,Equal,0.1,0.1,0.015848931924611127,1,0.6317352330006543
28,265,Control,0.0,0.1,0.01995262314968879,1,0.5559533400009968
28,266,Control,0.0,0.1,0.015848931924611127,1,0.30000341400227626
28,267,Equal,0.1,0.1,0.012589254117941666,1,0.5282702860022255
28,268,Control,0.0,0.25,0.01995262314968879,1,0.33662808799999766
28,269,Control,0.0,0.25,0.015848931924611127,1,0.45970075800141785
28,270,Control,0.0,0.1,0.012589254117941666,0,99
28,271,Equal,0.1,0.1,0.009999999999999995,0,99
28,272,Equal,0.25,0.25,0.015848931924611127,0,99
28,273,Equal,0.1,0.1,0.012589254117941666,1,1.1193419920018641
28,274,Control_null,0.0,0.25,0.05011872336272722,1,1.2031572640007653
28,275,Control,0.0,0.25,0.012589254117941666,1,0.4323950590005552
28,276,Control,0.0,0.1,0.015848931924611127,0,0.803183865002211
28,277,Equal,0.1,0.1,0.009999999999999995,1,0.2772406399999454
28,278,Equal,0.25,0.25,0.01995262314968879,1,0.6484131969991722
28,279,Equal,0.1,0.1,0.00794328234724281,0,0.7206167850017664
28,280,Increase,0.1,0.25,0.015848931924611127,1,0.6446370580015355
28,281,Equal,0.25,0.25,0.015848931924611127,1,0.38917738199961605
28,282,Increase,0.1,0.25,0.012589254117941666,0,0.7361000409982807
28,283,Equal,0.1,0.1,0.009999999999999995,1,0.8753096319996985
28,284,Equal,0.25,0.25,0.012589254117941666,0,0.4134094830005779
28,285,Control,0.0,0.25,0.009999999999999995,0,0.448759599999903
28,286,Decrease,0.25,0.1,0.015848931924611127,1,0.3079432459999225
28,287,Control,0.0,0.25,0.012589254117941666,0,99
28,288,Decrease,0.25,0.1,0.012589254117941666,0,0.8283333049985231
28,289,Decrease,0.25,0.1,0.015848931924611127,1,0.44057313399753184
28,290,Increase,0.1,0.25,0.015848931924611127,1,0.5386398609989556
28,291,Control,0.0,0.1,0.01995262314968879,1,0.40566072200090275
28,292,Decrease,0.25,0.1,0.012589254117941666,0,0.7350295870019181
28,293,Increase,0.1,0.25,0.012589254117941666,0,0.7382808729998942
28,294,Control,0.0,0.25,0.015848931924611127,1,0.5704148210024869
28,295,Control_null,0.0,0.1,0.05011872336272722,1,0.7095327659990289
28,296,Control,0.0,0.25,0.012589254117941666,0,0.6968512440034829
28,297,Decrease,0.25,0.1,0.015848931924611127,1,0.5641212360023928
28,298,Control_null,0.0,0.1,0.03981071705534971,1,0.6549333500006469
28,299,Increase_null,0.1,0.25,0.03981071705534971,1,0.3214101390003634
28,300,Control,0.0,0.25,0.015848931924611127,0,0.3483721560005506
28,301,Control,0.0,0.1,0.015848931924611127,0,0.40981957300027716
28,302,Control,0.0,0.25,0.01995262314968879,0,0.2712425479985541
28,303,Equal,0.1,0.1,0.00794328234724281,0,99
28,304,Equal,0.25,0.25,0.015848931924611127,0,0.123256078997656
28,305,Decrease,0.25,0.1,0.012589254117941666,0,0.5313686359986605
28,306,Equal,0.25,0.25,0.01995262314968879,0,0.28767802299989853
28,307,Control,0.0,0.1,0.01995262314968879,0,0.4397756420003134
28,308,Control_null,0.0,0.25,0.03981071705534971,1,0.3711582640025881
28,309,Increase,0.1,0.25,0.015848931924611127,0,99
28,310,Control,0.0,0.25,0.025118864315095794,0,0.28923800800112076
28,311,Control,0.0,0.1,0.025118864315095794,1,0.4524810949988023
28,312,Decrease,0.25,0.1,0.015848931924611127,1,0.5357338169997092
28,313,Control,0.0,0.1,0.01995262314968879,0,1.0510808100007125
28,314,Control,0.0,0.25,0.031622776601683784,1,0.4871293309988687
28,315,Control,0.0,0.1,0.025118864315095794,1,0.4441603129998839
28,316,Equal,0.25,0.25,0.025118864315095794,1,0.5882939960029034
28,317,Equal,0.25,0.25,0.01995262314968879,0,0.6646953989984468
28,318,Equal,0.25,0.25,0.025118864315095794,1,0.47835290700095356
28,319,Decrease,0.25,0.1,0.012589254117941666,1,0.27369874400028493
28,320,Increase,0.1,0.25,0.01995262314968879,0,0.746375781000097
28,321,Control,0.0,0.1,0.01995262314968879,1,0.42253724499823875
28,322,Equal,0.1,0.1,0.009999999999999995,0,0.4175200780009618
28,323,Increase,0.1,0.25,0.025118864315095794,1,0.5567419250000967
28,324,Equal,0.25,0.25,0.01995262314968879,1,0.40006031099983375
28,325,Equal,0.25,0.25,0.015848931924611127,0,0.33123263899688027
28,326,Equal,0.25,0.25,0.01995262314968879,1,0.5572767609992297
28,327,Increase,0.1,0.25,0.01995262314968879,1,0.666856108000502
28,328,Control,0.0,0.25,0.02511886431509579,0,0.9431621479998284
28,329,Control,0.0,0.25,0.031622776601683784,0,99
28,330,Equal,0.1,0.1,0.012589254117941666,0,99
28,331,Decrease,0.25,0.1,0.009999999999999995,1,0.2844030880005448
28,332,Control,0.0,0.1,0.015848931924611127,1,0.8395344170021417
28,333,Control,0.0,0.25,0.03981071705534971,1,0.407579128001089
28,334,Control,0.0,0.1,0.012589254117941666,0,0.4987326190021122
28,335,Increase,0.1,0.25,0.015848931924611127,1,0.3817468140005076
28,336,Decrease,0.25,0.1,0.00794328234724281,0,99
28,337,Control,0.0,0.25,0.031622776601683784,1,0.6054434369980299
28,338,Control,0.0,0.1,0.015848931924611127,0,99
28,339,Control,0.0,0.25,0.02511886431509579,0,0.2276064280013088
28,340,Increase,0.1,0.25,0.012589254117941666,0,0.584917914999096
28,341,Increase,0.1,0.25,0.015848931924611127,1,0.39816174199950183
28,342,Equal,0.25,0.25,0.015848931924611127,0,0.3105058340006508
28,343,Decrease,0.25,0.1,0.009999999999999995,1,0.9374677060004615
28,344,Control,0.0,0.25,0.031622776601683784,1,0.5786517609994917
28,345,Equal,0.1,0.1,0.015848931924611127,0,0.6300531779997982
28,346,Control,0.0,0.1,0.01995262314968879,0,0.7500108909989649
28,347,Equal,0.1,0.1,0.01995262314968879,0,0.4168984839998302
28,348,Decrease,0.25,0.1,0.00794328234724281,0,0.3414864070000476
28,349,Equal,0.1,0.1,0.025118864315095794,0,0.3127082720020553
28,350,Control,0.0,0.25,0.02511886431509579,1,0.4198824980012432
28,351,Decrease,0.25,0.1,0.009999999999999995,0,0.6948970179983007
28,352,Equal,0.25,0.25,0.01995262314968879,1,0.3620711730000039
28,353,Control,0.0,0.25,0.01995262314968879,1,0.3746897259989055
28,354,Increase,0.1,0.25,0.012589254117941666,0,0.5161648649991548
28,355,Decrease,0.25,0.1,0.012589254117941666,1,0.1877919069993368
28,356,Control,0.0,0.1,0.025118864315095794,1,0.5039446679984394
28,357,Equal,0.1,0.1,0.031622776601683784,1,0.3122340539994184
28,358,Increase_null,0.1,0.25,0.031622776601683784,1,0.5472595430001093
28,359,Decrease,0.25,0.1,0.009999999999999995,0,0.3632892450004874
28,360,Equal,0.25,0.25,0.015848931924611127,0,0.779561282000941
28,361,Decrease_null,0.25,0.1,0.05011872336272722,1,0.3585867049987428
28,362,Decrease,0.25,0.1,0.012589254117941666,0,0.32201701600206434
28,363,Equal,0.1,0.1,0.02511886431509579,0,0.18086405799840577
28,364,Increase_null,0.1,0.25,0.02511886431509579,1,0.4900970259986934
28,365,Increase,0.1,0.25,0.015848931924611127,1,0.41334345699942787
28,366,Equal,0.1,0.1,0.031622776601683784,1,0.4544918139981746
28,367,Control,0.0,0.1,0.01995262314968879,1,0.5215397889987798
28,368,Equal,0.25,0.25,0.01995262314968879,0,0.3699509489997581
28,369,Equal,0.25,0.25,0.025118864315095794,1,0.4300877089990536
28,370,Equal,0.25,0.25,0.01995262314968879,0,0.4252358279991313
28,371,Control,0.0,0.1,0.015848931924611127,1,0.48224788999868906
28,372,Decrease,0.25,0.1,0.015848931924611127,0,0.3496106710008462
28,373,Decrease,0.25,0.1,0.01995262314968879,1,0.6647855410010379
28,374,Control,0.0,0.1,0.012589254117941666,0,0.3560046300008253
28,375,Control,0.0,0.1,0.015848931924611127,1,0.33309750400076155
28,376,Equal,0.25,0.25,0.025118864315095794,1,0.44145541199759464
28,377,Equal,0.1,0.1,0.02511886431509579,1,0.5406833099987125
28,378,Decrease,0.25,0.1,0.015848931924611127,1,0.5302421699998376
28,379,Control,0.0,0.25,0.015848931924611127,0,0.6338668669995968
28,380,Decrease,0.25,0.1,0.012589254117941666,1,0.9569792510010302
28,381,Increase,0.1,0.25,0.012589254117941666,0,0.574522071001411
28,382,Control,0.0,0.25,0.01995262314968879,0,0.5374167180016229
28,383,Control,0.0,0.1,0.012589254117941666,0,0.4823460299994622
28,384,Control,0.0,0.25,0.025118864315095794,1,0.4615379300012137
28,385,Equal,0.25,0.25,0.01995262314968879,1,0.6021052579999377
28,386,Equal,0.1,0.1,0.01995262314968879,0,0.5094482770000468
28,387,Decrease,0.25,0.1,0.009999999999999995,0,0.42427990899886936
28,388,Increase,0.1,0.25,0.015848931924611127,0,0.37278453199905925
28,389,Decrease_null,0.25,0.1,0.03981071705534971,1,0.31977480099885724
28,390,Equal,0.25,0.25,0.015848931924611127,0,0.23499780999918585
28,391,Equal,0.25,0.25,0.01995262314968879,1,0.44719521399747464
28,392,Control,0.0,0.1,0.015848931924611127,0,0.3924067139996623
28,393,Equal,0.25,0.25,0.015848931924611127,0,0.32355539700074587
28,394,Control,0.0,0.1,0.01995262314968879,1,0.4517309139991994
28,395,Equal,0.25,0.25,0.01995262314968879,0,0.4948995949998789
28,396,Control,0.0,0.25,0.01995262314968879,0,0.633213421999244
28,397,Decrease,0.25,0.1,0.012589254117941666,0,0.4441443670002627
28,398,Decrease,0.25,0.1,0.015848931924611127,1,0.8554126430026372
28,399,Control,0.0,0.25,0.025118864315095794,1,0.4025676300007035
28,400,Control,0.0,0.25,0.01995262314968879,0,99
28,401,Decrease_null,0.25,0.1,0.031622776601683784,1,0.5471379250011523
28,402,Control,0.0,0.1,0.015848931924611127,0,0.5341871829987213
28,403,Equal,0.1,0.1,0.025118864315095794,0,0.42552022900054
28,404,Equal,0.1,0.1,0.031622776601683784,1,0.44546600399917224
28,405,Equal,0.25,0.25,0.025118864315095794,1,0.3827380040020216
28,406,Decrease,0.25,0.1,0.012589254117941666,0,0.47373420399890165
28,407,Increase,0.1,0.25,0.01995262314968879,1,0.4501763359985489
28,408,Equal,0.25,0.25,0.01995262314968879,0,0.5813790249994781
28,409,Increase,0.1,0.25,0.015848931924611127,1,0.6071421480010031
28,410,Equal,0.25,0.25,0.025118864315095794,1,1.1307277269988845
28,411,Equal,0.1,0.1,0.02511886431509579,1,0.509921046999807
28,412,Increase,0.1,0.25,0.012589254117941666,0,0.49023937300080433
28,413,Equal,0.1,0.1,0.01995262314968879,1,0.4212130880005134
28,414,Decrease,0.25,0.1,0.015848931924611127,1,0.3605341260008572
28,415,Decrease,0.25,0.1,0.012589254117941666,0,0.24463209900204674
28,416,Control,0.0,0.25,0.025118864315095794,1,0.29376422399946023
28,417,Equal,0.25,0.25,0.01995262314968879,1,0.29000794799867435
28,418,Equal,0.25,0.25,0.015848931924611127,1,0.3301734900014708
28,419,Equal,0.25,0.25,0.012589254117941666,0,0.5895237049990101
28,420,Equal,0.1,0.1,0.015848931924611127,0,0.5257655210007215
28,421,Control,0.0,0.25,0.01995262314968879,0,0.2487860629989882
28,422,Equal,0.1,0.1,0.01995262314968879,1,0.3229865819994302
28,423,Decrease,0.25,0.1,0.015848931924611127,0,0.325910194998869
28,424,Control,0.0,0.25,0.025118864315095794,1,0.19333574499978567
28,425,Decrease,0.25,0.1,0.01995262314968879,1,0.40458617100011907
28,426,Increase,0.1,0.25,0.015848931924611127,1,0.3926991309999721
28,427,Decrease,0.25,0.1,0.015848931924611127,1,0.3962154250002641
28,428,Equal,0.25,0.25,0.015848931924611127,1,0.7059447810024722
28,429,Control,0.0,0.1,0.01995262314968879,1,0.3952130190009484
28,430,Decrease,0.25,0.1,0.012589254117941666,0,0.6383261880000646
28,431,Equal,0.1,0.1,0.015848931924611127,1,0.2307592580000346
28,432,Equal,0.25,0.25,0.012589254117941666,0,0.49770215000171447
28,433,Equal,0.1,0.1,0.012589254117941666,0,0.1299765040021157
28,434,Increase,0.1,0.25,0.012589254117941666,0,0.23742932800087146
28,435,Control,0.0,0.1,0.015848931924611127,0,0.20725724400108447
28,436,Equal,0.1,0.1,0.015848931924611127,0,0.38749792000089656
28,437,Equal,0.25,0.25,0.015848931924611127,0,0.030658346000564052
28,438,Increase,0.1,0.25,0.015848931924611127,0,0.2740029920023517
28,439,Increase,0.1,0.25,0.01995262314968879,0,0.12516707900067559
28,440,Equal,0.25,0.25,0.01995262314968879,0,0.154756637999526
28,441,Equal,0.25,0.25,0.025118864315095794,0,99
28,442,Decrease,0.25,0.1,0.015848931924611127,0,0.2716364820007584
28,443,Decrease,0.25,0.1,0.01995262314968879,0,0.210620960999222
28,444,Equal,0.25,0.25,0.031622776601683784,0,0.05219866900006309
28,445,Control,0.0,0.1,0.01995262314968879,0,0.3431819799989171
28,446,Control,0.0,0.25,0.01995262314968879,1,0.39129840199893806
28,447,Increase_null,0.1,0.25,0.01995262314968879,1,0.35467394900115323
28,448,Control,0.0,0.25,0.015848931924611127,0,0.22986968600162072
28,449,Equal,0.1,0.1,0.01995262314968879,1,0.35288617000333034
28,450,Control,0.0,0.1,0.025118864315095794,1,0.2601739359997737
28,451,Equal,0.25,0.25,0.03981071705534971,1,0.2710306560002209
28,452,Decrease,0.25,0.1,0.025118864315095794,1,0.13847673799682525
28,453,Decrease,0.25,0.1,0.01995262314968879,1,0.4001577039998665
28,454,Equal,0.25,0.25,0.031622776601683784,0,0.26809038700230303
28,455,Control,0.0,0.25,0.01995262314968879,1,0.3571148600021843
28,456,Equal,0.1,0.1,0.015848931924611127,0,0.26426994199937326
28,457,Equal,0.1,0.1,0.01995262314968879,0,0.19247824999911245
28,458,Equal,0.25,0.25,0.03981071705534971,1,0.17265173200212303
28,459,Increase,0.1,0.25,0.025118864315095794,1,0.24504807499761228
28,460,Increase_null,0.1,0.25,0.015848931924611127,1,0.49604326899861917
28,461,Decrease,0.25,0.1,0.015848931924611127,1,0.25916650900035165
28,462,Control,0.0,0.1,0.01995262314968879,1,0.3262918250002258
28,463,Control,0.0,0.25,0.015848931924611127,0,0.5535228100015956
28,464,Decrease,0.25,0.1,0.012589254117941666,0,0.5247599300018919
28,465,Equal,0.25,0.25,0.031622776601683784,1,0.4799399599978642
28,466,Decrease,0.25,0.1,0.015848931924611127,0,99
28,467,Increase_null,0.1,0.25,0.012589254117941666,1,0.5363625869977113
28,468,Equal,0.1,0.1,0.025118864315095794,0,0.12961196700052824
28,469,Control,0.0,0.25,0.01995262314968879,1,0.2847119409998413
28,470,Increase,0.1,0.25,0.01995262314968879,1,0.3328309429998626
28,471,Decrease,0.25,0.1,0.01995262314968879,1,0.4330628149982658
28,472,Equal,0.1,0.1,0.031622776601683784,0,0.24946361100228387
28,473,Control,0.0,0.25,0.015848931924611127,1,0.32450819199948455
28,474,Equal,0.1,0.1,0.03981071705534971,1,0.26355441699706716
28,475,Control,0.0,0.25,0.012589254117941666,0,0.8748177630004648
28,476,Equal_null,0.1,0.1,0.06309573444801932,1,0.5416755169972021
28,477,Decrease,0.25,0.1,0.015848931924611127,1,0.5533725259992934
28,478,Equal,0.1,0.1,0.031622776601683784,1,0.380353804997867
28,479,Control,0.0,0.1,0.015848931924611127,0,0.5460034860006999
28,480,Decrease,0.25,0.1,0.012589254117941666,0,1.049760215999413
28,481,Control_null,0.0,0.1,0.031622776601683784,0,99
28,482,Decrease_null,0.25,0.1,0.02511886431509579,1,0.07625796600041213
28,483,Increase,0.1,0.25,0.015848931924611127,0,0.08599957799742697
28,484,Control,0.0,0.1,0.01995262314968879,1,0.4092553439986659
28,485,Equal,0.25,0.25,0.02511886431509579,1,0.2444576660018356
28,486,Equal,0.25,0.25,0.01995262314968879,0,0.3757961730007082
28,487,Decrease,0.25,0.1,0.015848931924611127,0,0.6429299269984767
28,488,Increase,0.1,0.25,0.01995262314968879,0,0.3256958450001548
28,489,Equal,0.25,0.25,0.025118864315095794,1,0.35428912499992293
28,490,Decrease,0.25,0.1,0.01995262314968879,0,0.29287590400053887
28,491,Equal,0.1,0.1,0.02511886431509579,1,0.32197600300060003
28,492,Control,0.0,0.25,0.015848931924611127,1,0.5137787099993147
28,493,Increase,0.1,0.25,0.025118864315095794,1,0.3488110530015547
28,494,Equal,0.1,0.1,0.01995262314968879,1,0.4302190790003806
28,495,Control,0.0,0.25,0.012589254117941666,0,0.6415942050007288
28,496,Equal,0.1,0.1,0.015848931924611127,0,0.45060077299785917
28,497,Control,0.0,0.1,0.015848931924611127,0,0.20548233199951937
28,498,Equal,0.25,0.25,0.01995262314968879,1,0.369016284999816
28,499,Decrease,0.25,0.1,0.025118864315095794,1,0.5002514129992051
28,500,Decrease_null,0.25,0.1,0.01995262314968879,0,0.6072637110009964
28,501,Equal,0.25,0.25,0.015848931924611127,1,0.5634760159991856
28,502,Control,0.0,0.1,0.01995262314968879,1,0.5265072940019309
28,503,Equal,0.25,0.25,0.012589254117941666,0,0.4753899300012563
28,504,Control,0.0,0.1,0.015848931924611127,0,0.3031211119996442
28,505,Increase_null,0.1,0.25,0.009999999999999995,1,0.3032026479995693
28,506,Control,0.0,0.25,0.015848931924611127,0,0.22632732300189673
28,507,Equal,0.1,0.1,0.01995262314968879,0,0.47462805900067906
28,508,Control_null,0.0,0.1,0.03981071705534971,1,0.07071801500205765
28,509,Equal,0.1,0.1,0.025118864315095794,0,0.10397162600202137
28,510,Equal,0.25,0.25,0.015848931924611127,0,0.4591229879988532
28,511,Control_null,0.0,0.25,0.031622776601683784,0,99
28,512,Increase,0.1,0.25,0.01995262314968879,1,0.305476440997154
28,513,Increase,0.1,0.25,0.015848931924611127,1,0.6368513540001004
28,514,Control_null,0.0,0.1,0.031622776601683784,0,99
28,515,Increase,0.1,0.25,0.012589254117941666,0,0.6431043860029604
28,516,Decrease,0.25,0.1,0.01995262314968879,0,0.5662023029981356
28,517,Increase,0.1,0.25,0.015848931924611127,0,0.7464363840008446
28,518,Control,0.0,0.1,0.01995262314968879,0,0.32348159899993334
28,519,Equal,0.1,0.1,0.031622776601683784,1,0.2546695089986315
28,520,Control,0.0,0.1,0.025118864315095794,0,0.863075329001731
28,521,Control,0.0,0.1,0.031622776601683784,1,0.4591179010021733
28,522,Increase,0.1,0.25,0.01995262314968879,1,0.32441053000002285
28,523,Control,0.0,0.25,0.01995262314968879,1,0.3435600720004004
28,524,Control,0.0,0.25,0.015848931924611127,1,0.3225760599998466
28,525,Control,0.0,0.25,0.012589254117941666,0,0.43828977000157465
28,526,Increase,0.1,0.25,0.015848931924611127,0,0.18604130200037616
28,527,Control,0.0,0.1,0.02511886431509579,1,0.43759303800106863
28,528,Equal,0.1,0.1,0.02511886431509579,1,0.22441316800177447
28,529,Equal,0.1,0.1,0.01995262314968879,1,0.019668712000566302
28,530,Increase,0.1,0.25,0.01995262314968879,1,0.06392441500065615
28,531,Control,0.0,0.1,0.01995262314968879,1,0.1600059689990303
28,532,Equal,0.1,0.1,0.015848931924611127,1,0.6912501949991565
28,533,Equal,0.25,0.25,0.01995262314968879,1,0.35521095000149217
28,534,Equal_null,0.1,0.1,0.05011872336272722,0,0.10351770099805435
28,535,Decrease,0.25,0.1,0.025118864315095794,0,0.11281377900013467
28,536,Increase,0.1,0.25,0.015848931924611127,1,0.25964971800203784
28,537,Control_null,0.0,0.25,0.03981071705534971,1,0.4072388089989545
28,538,Equal,0.1,0.1,0.012589254117941666,0,0.2903160560017568
28,539,Control,0.0,0.1,0.015848931924611127,1,0.3974688359994616
28,540,Control,0.0,0.1,0.012589254117941666,1,0.345698380999238
28,541,Decrease,0.25,0.1,0.031622776601683784,1,0.44608652500028256
28,542,Equal,0.1,0.1,0.015848931924611127,1,0.32954013100243174
28,543,Control,0.0,0.25,0.015848931924611127,0,0.2523672870011069
28,544,Control,0.0,0.1,0.009999999999999995,0,0.43635530400206335
28,545,Equal,0.25,0.25,0.015848931924611127,0,0.2635571360005997
28,546,Equal,0.1,0.1,0.012589254117941666,0,0.2880275770003209
28,547,Control,0.0,0.1,0.012589254117941666,0,0.6571219170000404
28,548,Control,0.0,0.25,0.01995262314968879,1,0.36319122799977777
28,549,Equal,0.1,0.1,0.015848931924611127,1,0.34255478200066136
28,550,Control,0.0,0.1,0.015848931924611127,0,0.17761598699871683
28,551,Equal,0.25,0.25,0.01995262314968879,0,0.052503322000120534
28,552,Equal,0.25,0.25,0.025118864315095794,1,0.15202953300104127
28,553,Equal,0.25,0.25,0.01995262314968879,1,0.19664409899996826
28,554,Control,0.0,0.25,0.015848931924611127,1,0.3593226800003322
28,555,Equal,0.25,0.25,0.015848931924611127,1,0.5135486069993931
28,556,Increase,0.1,0.25,0.012589254117941666,1,0.6845494329973008
28,557,Control,0.0,0.25,0.012589254117941666,0,0.34162665600160835
28,558,Increase_null,0.1,0.25,0.00794328234724281,1,0.4890109210027731
28,559,Equal,0.25,0.25,0.012589254117941666,0,0.35321830899920315
28,560,Increase,0.1,0.25,0.009999999999999995,1,0.4443551119984477
28,561,Control_null,0.0,0.25,0.031622776601683784,1,0.4066006000030029
28,562,Control,0.0,0.25,0.015848931924611127,1,0.5055679359975329
28,563,Control,0.0,0.25,0.012589254117941666,0,0.3089687720021175
28,564,Decrease_null,0.25,0.1,0.025118864315095794,1,0.3839495940010238
28,565,Equal,0.25,0.25,0.015848931924611127,1,0.2765601049977704
28,566,Decrease,0.25,0.1,0.02511886431509579,1,0.3045388630016532
28,567,Equal,0.1,0.1,0.012589254117941666,0,0.4863791690004291
28,568,Control,0.0,0.25,0.015848931924611127,0,0.8309438780015626
28,569,Decrease,0.25,0.1,0.01995262314968879,1,0.338028342997859
28,570,Control_null,0.0,0.1,0.03981071705534971,1,0.3700509640002565
28,571,Equal,0.1,0.1,0.015848931924611127,1,0.30147215599936317
28,572,Equal_null,0.1,0.1,0.06309573444801932,1,0.32675715199729893
28,573,Control,0.0,0.1,0.01995262314968879,1,0.497937151001679
28,574,Control,0.0,0.1,0.015848931924611127,0,0.4760891570003878
28,575,Equal,0.25,0.25,0.012589254117941666,0,0.5513450459984597
28,576,Control,0.0,0.25,0.01995262314968879,0,0.3384780000014871
28,577,Control_null,0.0,0.25,0.02511886431509579,1,0.30334401599975536
28,578,Control,0.0,0.25,0.025118864315095794,1,0.3617653750006866
28,579,Control,0.0,0.25,0.01995262314968879,0,0.2551406560014584
28,580,Decrease,0.25,0.1,0.015848931924611127,1,0.42060024500096915
28,581,Increase,0.1,0.25,0.00794328234724281,0,0.2612681509999675
28,582,Equal,0.25,0.25,0.015848931924611127,1,0.3602655889990274
28,583,Equal,0.1,0.1,0.012589254117941666,0,0.26456370300002163
28,584,Equal,0.1,0.1,0.015848931924611127,0,0.3317332920014451
28,585,Increase,0.1,0.25,0.009999999999999995,0,0.5483825740011525
28,586,Decrease,0.25,0.1,0.012589254117941666,0,0.520075527998415
28,587,Increase,0.1,0.25,0.012589254117941666,0,0.5862594480022381
28,588,Equal,0.25,0.25,0.012589254117941666,0,0.3986393799968937
28,589,Increase,0.1,0.25,0.015848931924611127,0,0.22588086100222426
28,590,Equal_null,0.1,0.1,0.05011872336272722,1,0.35627126100007445
28,591,Equal,0.1,0.1,0.01995262314968879,1,0.6817535150003096
28,592,Equal,0.25,0.25,0.015848931924611127,0,0.29335943600017345
28,593,Equal,0.25,0.25,0.01995262314968879,0,0.3860539260022051
28,594,Decrease,0.25,0.1,0.015848931924611127,0,0.4588549870022689
28,595,Equal,0.25,0.25,0.025118864315095794,1,0.36601246099962736
28,596,Control,0.0,0.25,0.025118864315095794,1,0.4232664310002292
28,597,Equal,0.1,0.1,0.015848931924611127,0,0.42646764000164694
28,598,Control,0.0,0.25,0.01995262314968879,1,0.3465638029992988
28,599,Decrease,0.25,0.1,0.01995262314968879,1,0.26128916699963156
28,600,Control,0.0,0.25,0.015848931924611127,0,0.31263592499817605
28,601,Equal,0.25,0.25,0.01995262314968879,0,0.275883103000524
28,602,Control,0.0,0.25,0.01995262314968879,0,99
28,603,Control,0.0,0.25,0.025118864315095794,0,0.0360108710010536
28,604,Equal,0.25,0.25,0.025118864315095794,0,0.2785981080014608
28,605,Equal,0.25,0.25,0.031622776601683784,0,0.1355845620018954
28,606,Control,0.0,0.1,0.01995262314968879,1,0.36273267199794645
28,607,Equal,0.25,0.25,0.03981071705534971,0,0.13087689399981173
28,608,Increase,0.1,0.25,0.01995262314968879,0,0.6299769030010793
28,609,Equal,0.25,0.25,0.05011872336272721,1,0.30325673799961805
28,610,Control,0.0,0.25,0.031622776601683784,1,0.3944393609999679
28,611,Increase,0.1,0.25,0.025118864315095794,0,0.5576639020000584
28,612,Equal,0.25,0.25,0.03981071705534971,1,0.3527729689994885
28,613,Equal_null,0.1,0.1,0.03981071705534971,1,0.5799609230016358
28,614,Equal,0.1,0.1,0.01995262314968879,1,0.5912395259983896
28,615,Equal,0.25,0.25,0.031622776601683784,1,0.2823697540006833
28,616,Control,0.0,0.1,0.015848931924611127,0,0.5431901310003013
28,617,Equal,0.25,0.25,0.02511886431509579,1,0.40305599400016945
28,618,Equal,0.25,0.25,0.01995262314968879,0,0.39597421399957966
28,619,Decrease_null,0.25,0.1,0.01995262314968879,1,0.8872256069989817
28,620,Equal,0.25,0.25,0.025118864315095794,1,0.2883279620000394
28,621,Increase,0.1,0.25,0.031622776601683784,1,0.347574983999948
28,622,Equal,0.1,0.1,0.015848931924611127,0,0.8527291399987007
28,623,Equal,0.1,0.1,0.01995262314968879,0,0.6319520640026894
28,624,Increase,0.1,0.25,0.02511886431509579,1,0.31506496899964986
28,625,Increase,0.1,0.25,0.01995262314968879,1,0.7744750160018157
28,626,Control_null,0.0,0.25,0.01995262314968879,1,0.6175699189989245
28,627,Decrease_null,0.25,0.1,0.015848931924611127,1,0.4686348889990768
28,628,Increase,0.1,0.25,0.015848931924611127,0,0.3608719670010032
28,629,Control,0.0,0.25,0.02511886431509579,1,0.2856278420003946
28,630,Increase,0.1,0.25,0.01995262314968879,1,0.2497688309995283
28,631,Control,0.0,0.25,0.01995262314968879,1,0.6665291879980941
28,632,Control,0.0,0.25,0.015848931924611127,1,0.6697005180030828
28,633,Control,0.0,0.1,0.01995262314968879,0,0.3894532009981049
28,634,Increase,0.1,0.25,0.015848931924611127,0,0.6407518419982807
28,635,Decrease,0.25,0.1,0.015848931924611127,0,0.8340718889994605
28,636,Increase,0.1,0.25,0.01995262314968879,1,0.4690742809980293
28,637,Equal,0.25,0.25,0.01995262314968879,1,0.345548385001166
28,638,Increase,0.1,0.25,0.015848931924611127,1,0.3718100219994085
28,639,Control,0.0,0.1,0.025118864315095794,1,0.5358773769985419
28,640,Decrease_null,0.25,0.1,0.012589254117941666,1,0.6273038130020723
28,641,Control,0.0,0.25,0.012589254117941666,0,0.5745333989980281
28,642,Equal,0.1,0.1,0.025118864315095794,1,0.4109503039981064
28,643,Control,0.0,0.1,0.01995262314968879,1,0.28007402300136164
28,644,Equal,0.25,0.25,0.015848931924611127,1,0.2797638249976444
28,645,Equal,0.25,0.25,0.012589254117941666,0,0.37901830700138817
28,646,Control,0.0,0.1,0.015848931924611127,1,0.38025292399834143
28,647,Control,0.0,0.25,0.015848931924611127,0,0.735450984997442
28,648,Equal,0.25,0.25,0.015848931924611127,0,0.4724870549980551
28,649,Equal,0.25,0.25,0.01995262314968879,0,0.3718700669996906
28,650,Control,0.0,0.25,0.01995262314968879,0,0.2630505980014277
28,651,Control,0.0,0.1,0.012589254117941666,0,0.48199511999700917
28,652,Decrease,0.25,0.1,0.01995262314968879,1,0.3492238680009905
28,653,Equal,0.25,0.25,0.025118864315095794,0,0.25742981000075815
28,654,Increase,0.1,0.25,0.012589254117941666,0,0.46877875000063796
28,655,Equal,0.25,0.25,0.031622776601683784,1,0.2718405410014384
28,656,Control,0.0,0.25,0.025118864315095794,1,0.46992139099893393
28,657,Control,0.0,0.1,0.015848931924611127,0,0.3410890079976525
28,658,Decrease,0.25,0.1,0.015848931924611127,0,0.5843832259997725
28,659,Control,0.0,0.1,0.01995262314968879,0,0.4417534109998087
28,660,Decrease,0.25,0.1,0.01995262314968879,1,0.5478144089975103
28,661,Decrease,0.25,0.1,0.015848931924611127,1,0.3067787309992127
28,662,Equal,0.25,0.25,0.02511886431509579,0,0.18985069100017427
28,663,Increase,0.1,0.25,0.015848931924611127,1,0.2732822420002776
28,664,Equal,0.25,0.25,0.031622776601683784,1,0.27666304399826913
28,665,Control,0.0,0.25,0.01995262314968879,0,0.7355659340028069
28,666,Increase,0.1,0.25,0.012589254117941666,0,0.5157943199992587
28,667,Increase,0.1,0.25,0.015848931924611127,1,0.39877855099985027
28,668,Control,0.0,0.25,0.025118864315095794,1,0.35320159800176043
28,669,Equal,0.1,0.1,0.01995262314968879,0,0.6211771509988466
28,670,Increase,0.1,0.25,0.012589254117941666,1,0.349509265000961
28,671,Decrease,0.25,0.1,0.012589254117941666,1,0.36099689699767623
28,672,Equal,0.25,0.25,0.02511886431509579,1,0.4420383809992927
28,673,Equal,0.1,0.1,0.025118864315095794,1,0.4053305969973735
28,674,Decrease,0.25,0.1,0.009999999999999995,0,0.6865004950013827
28,675,Control_null,0.0,0.25,0.015848931924611127,1,0.49867118099791696
28,676,Control,0.0,0.25,0.01995262314968879,1,0.46181877499839175
28,677,Equal_null,0.1,0.1,0.031622776601683784,1,0.6890936240015435
28,678,Increase,0.1,0.25,0.009999999999999995,0,0.3482307779995608
28,679,Control,0.0,0.1,0.025118864315095794,1,0.4406012360013847
28,680,Control_null,0.0,0.1,0.031622776601683784,1,0.42830608100121026
28,681,Equal,0.25,0.25,0.01995262314968879,0,0.606603661999543
28,682,Control,0.0,0.25,0.015848931924611127,1,0.43397163700137753
28,683,Control,0.0,0.1,0.01995262314968879,0,0.4102081390010426
28,684,Control,0.0,0.25,0.012589254117941666,0,0.5093157029987196
28,685,Control,0.0,0.25,0.015848931924611127,0,0.35845248000259744
28,686,Decrease,0.25,0.1,0.012589254117941666,0,0.4016221300007601
28,687,Control,0.0,0.25,0.01995262314968879,1,0.4839033959979133
28,688,Increase,0.1,0.25,0.012589254117941666,0,0.44710472199949436
28,689,Decrease,0.25,0.1,0.015848931924611127,1,0.54622665900024
28,690,Equal,0.25,0.25,0.025118864315095794,1,0.4291133769984299
28,691,Increase,0.1,0.25,0.015848931924611127,1,0.7927188069988915
28,692,Increase,0.1,0.25,0.012589254117941666,0,0.9327347260004899
28,693,Equal,0.25,0.25,0.01995262314968879,1,0.4891800100012915
28,694,Decrease_null,0.25,0.1,0.009999999999999995,1,0.5562426450014755
28,695,Control_null,0.0,0.25,0.012589254117941666,1,0.5913570470002014
28,696,Increase,0.1,0.25,0.015848931924611127,1,0.35940380100146285
28,697,Control,0.0,0.1,0.025118864315095794,1,0.3306859460026317
28,698,Control,0.0,0.25,0.015848931924611127,0,0.2906468840010348
28,699,Decrease,0.25,0.1,0.012589254117941666,0,0.5510940749991278
28,700,Control,0.0,0.1,0.01995262314968879,1,0.43345156000214047
28,701,Equal_null,0.1,0.1,0.02511886431509579,1,0.46048116300153197
28,702,Control,0.0,0.1,0.015848931924611127,1,0.2956069780011603
28,703,Control,0.0,0.1,0.012589254117941666,0,0.322503711002355
28,704,Equal,0.1,0.1,0.01995262314968879,1,0.39944520000062766
28,705,Equal,0.1,0.1,0.015848931924611127,1,0.33951579999848036
28,706,Equal,0.1,0.1,0.012589254117941666,0,0.4088644959992962
28,707,Equal_null,0.1,0.1,0.01995262314968879,1,0.33745409800030757
28,708,Increase,0.1,0.25,0.012589254117941666,0,0.3324044600012712
28,709,Increase,0.1,0.25,0.015848931924611127,0,0.316840310999396
28,710,Increase,0.1,0.25,0.01995262314968879,1,0.4881980559985095
28,711,Increase,0.1,0.25,0.015848931924611127,1,0.6013748420009506
28,712,Control,0.0,0.25,0.01995262314968879,1,0.6445528240001295
28,713,Equal,0.1,0.1,0.015848931924611127,0,0.3427236110001104
28,714,Control,0.0,0.1,0.015848931924611127,1,0.6178371770001831
28,715,Decrease_null,0.25,0.1,0.00794328234724281,1,0.3012989060007385
28,716,Control,0.0,0.1,0.012589254117941666,0,0.4172413339983905
28,717,Equal,0.25,0.25,0.015848931924611127,0,0.2699671230002423
28,718,Decrease,0.25,0.1,0.015848931924611127,1,0.4659875559991633
28,719,Decrease,0.25,0.1,0.012589254117941666,1,0.5817946089991892
28,720,Equal,0.1,0.1,0.01995262314968879,0,0.42176668899992364
28,721,Control_null,0.0,0.25,0.009999999999999995,1,0.26587174000087543
28,722,Decrease,0.25,0.1,0.009999999999999995,0,0.16216581000117003
28,723,Control,0.0,0.25,0.015848931924611127,0,0.3972469889995409
28,724,Increase,0.1,0.25,0.012589254117941666,0,99
28,725,Equal,0.1,0.1,0.025118864315095794,1,0.32336649400167516
28,726,Control,0.0,0.25,0.01995262314968879,0,0.3826538270004676
28,727,Decrease,0.25,0.1,0.012589254117941666,0,0.4098693509986333
28,728,Control,0.0,0.25,0.025118864315095794,1,0.6452410519996192
28,729,Decrease,0.25,0.1,0.015848931924611127,1,0.43487066799934837
28,730,Increase,0.1,0.25,0.015848931924611127,1,0.535930752997956
28,731,Increase,0.1,0.25,0.012589254117941666,0,0.4566470199970354
28,732,Equal,0.1,0.1,0.01995262314968879,1,0.36408323499927064
28,733,Increase,0.1,0.25,0.015848931924611127,0,0.26793612600158667
28,734,Equal,0.25,0.25,0.01995262314968879,0,0.6564267020003172
28,735,Decrease,0.25,0.1,0.012589254117941666,0,0.3603707679976651
28,736,Control,0.0,0.25,0.01995262314968879,0,0.35542302600151743
28,737,Increase,0.1,0.25,0.01995262314968879,0,0.18262771000081557
28,738,Decrease,0.25,0.1,0.015848931924611127,1,0.386106934001873
28,739,Decrease,0.25,0.1,0.012589254117941666,0,0.5411077719982131
28,740,Decrease,0.25,0.1,0.015848931924611127,0,0.30436302200178034
28,741,Control,0.0,0.25,0.025118864315095794,1,0.5649331799977517
28,742,Increase,0.1,0.25,0.025118864315095794,1,0.35315567400175496
28,743,Decrease,0.25,0.1,0.01995262314968879,0,0.45342818000062834
28,744,Equal_null,0.1,0.1,0.015848931924611127,1,0.390946896000969
28,745,Decrease,0.25,0.1,0.025118864315095794,1,0.4102887760018348
28,746,Control,0.0,0.25,0.01995262314968879,1,0.4103865780016349
28,747,Increase,0.1,0.25,0.01995262314968879,1,0.206871829002921
28,748,Control,0.0,0.1,0.015848931924611127,0,99
28,749,Decrease,0.25,0.1,0.01995262314968879,1,0.42570216100284597
28,750,Equal,0.1,0.1,0.015848931924611127,0,0.37298847700003535
28,751,Increase,0.1,0.25,0.015848931924611127,1,0.44034161700255936
28,752,Increase,0.1,0.25,0.012589254117941666,0,0.48469543600003817
28,753,Control_null,0.0,0.25,0.00794328234724281,1,0.25596384199889144
28,754,Control,0.0,0.1,0.01995262314968879,0,0.6749770050009829
28,755,Control,0.0,0.1,0.025118864315095794,1,0.2955499529998633
28,756,Equal,0.1,0.1,0.01995262314968879,1,0.3799452189996373
28,757,Control,0.0,0.25,0.015848931924611127,0,0.5403717680019327
28,758,Control,0.0,0.25,0.01995262314968879,0,0.5278722980001476
28,759,Decrease,0.25,0.1,0.015848931924611127,0,0.17701026299982914
28,760,Control,0.0,0.25,0.025118864315095794,1,0.13219410700185108
28,761,Equal,0.1,0.1,0.015848931924611127,1,0.04543054399982793
28,762,Equal,0.1,0.1,0.012589254117941666,1,0.4244413580017863
28,763,Control,0.0,0.25,0.01995262314968879,0,0.10666590199980419
28,764,Control,0.0,0.1,0.01995262314968879,0,0.4618722159975732
28,765,Equal,0.1,0.1,0.009999999999999995,0,0.3941451110003982
28,766,Control,0.0,0.25,0.025118864315095794,1,0.41330282000126317
28,767,Control,0.0,0.1,0.025118864315095794,0,0.19208702700052527
28,768,Equal,0.1,0.1,0.012589254117941666,0,0.6287149870004214
28,769,Decrease,0.25,0.1,0.01995262314968879,1,0.28911896900171996
28,770,Control_null,0.0,0.1,0.02511886431509579,1,0.29000985300081084
28,771,Decrease,0.25,0.1,0.015848931924611127,1,0.524189514999307
28,772,Control,0.0,0.1,0.031622776601683784,1,0.33345487999758916
28,773,Equal,0.1,0.1,0.015848931924611127,0,0.24053614399963408
28,774,Decrease,0.25,0.1,0.012589254117941666,0,0.3938510090010823
28,775,Equal_null,0.1,0.1,0.012589254117941666,1,0.30118000600123196
28,776,Equal,0.1,0.1,0.01995262314968879,0,0.27104510399658466
28,777,Equal,0.1,0.1,0.025118864315095794,1,0.2902574959989579
28,778,Decrease,0.25,0.1,0.015848931924611127,0,0.3174762090020522
28,779,Decrease,0.25,0.1,0.01995262314968879,0,0.25685646400233964
28,780,Control,0.0,0.1,0.02511886431509579,1,0.2280729509984667
28,781,Decrease,0.25,0.1,0.025118864315095794,1,0.33623193399762386
28,782,Equal,0.1,0.1,0.01995262314968879,0,0.22974748900014674
28,783,Control,0.0,0.1,0.01995262314968879,1,0.17350478299704264
28,784,Decrease,0.25,0.1,0.01995262314968879,1,0.288175178997335
28,785,Control,0.0,0.25,0.01995262314968879,0,0.5377703290032514
28,786,Equal,0.1,0.1,0.025118864315095794,1,0.36556119499800843
28,787,Control,0.0,0.1,0.015848931924611127,0,0.5101978539969423
28,788,Control,0.0,0.25,0.025118864315095794,1,0.3215375940017111
28,789,Control,0.0,0.25,0.01995262314968879,1,0.3564166270007263
28,790,Control,0.0,0.1,0.01995262314968879,0,0.376717490998999
28,791,Control,0.0,0.25,0.015848931924611127,0,0.187889061999158
28,792,Decrease,0.25,0.1,0.015848931924611127,0,0.11093191200052388
28,793,Control,0.0,0.1,0.025118864315095794,0,0.1875592959986534
28,794,Control_null,0.0,0.1,0.01995262314968879,1,0.39053841100030695
28,795,Equal,0.1,0.1,0.01995262314968879,0,0.5002928989997599
28,796,Equal,0.1,0.1,0.025118864315095794,1,0.2759145960008027
28,797,Equal,0.1,0.1,0.01995262314968879,0,0.49478773000009824
28,798,Equal_null,0.25,0.25,0.07943282347242815,1,0.4642286829985096
28,799,Control,0.0,0.1,0.031622776601683784,1,0.4513690769999812
28,800,Control,0.0,0.1,0.02511886431509579,1,0.34044844600066426
28,801,Decrease,0.25,0.1,0.01995262314968879,0,0.33684621499924106
28,802,Control,0.0,0.25,0.01995262314968879,0,0.5392572109994944
28,803,Control,0.0,0.1,0.01995262314968879,1,0.3270961130001524
28,804,Control,0.0,0.1,0.015848931924611127,0,99
28,805,Decrease,0.25,0.1,0.025118864315095794,0,0.1815417489997344
28,806,Equal_null,0.1,0.1,0.009999999999999995,1,0.33657495199804544
28,807,Equal_null,0.1,0.1,0.00794328234724281,1,0.34788877699975274
28,808,Decrease,0.25,0.1,0.031622776601683784,1,0.42409728900020127
28,809,Control,0.0,0.1,0.01995262314968879,1,0.28806004999933066
28,810,Equal,0.1,0.1,0.025118864315095794,1,0.3954943569988245
28,811,Control,0.0,0.1,0.015848931924611127,1,0.36437098999886075
28,812,Equal_null,0.25,0.25,0.06309573444801932,1,0.3116343500005314
28,813,Control,0.0,0.1,0.012589254117941666,0,0.34505952800100204
28,814,Equal,0.1,0.1,0.01995262314968879,0,0.31602621099955286
28,815,Control,0.0,0.1,0.015848931924611127,1,0.42328116499993484
28,816,Equal,0.1,0.1,0.025118864315095794,1,0.29062321099991095
28,817,Control,0.0,0.1,0.012589254117941666,1,0.23796693699841853
28,818,Equal,0.1,0.1,0.01995262314968879,0,0.6660214910007198
28,819,Control,0.0,0.1,0.009999999999999995,0,0.3661443179989874
28,820,Control,0.0,0.1,0.012589254117941666,1,0.3535239909979282
28,821,Control,0.0,0.1,0.009999999999999995,0,0.4216445720012416
28,822,Control,0.0,0.1,0.012589254117941666,0,0.2537331029998313
28,823,Control,0.0,0.1,0.015848931924611127,0,0.17651247200046782
28,824,Control,0.0,0.1,0.01995262314968879,0,0.2582006230004481
28,825,Control,0.0,0.1,0.025118864315095794,1,0.3574024189983902
28,826,Control,0.0,0.1,0.01995262314968879,1,0.4144323289983731
28,827,Equal_null,0.25,0.25,0.05011872336272722,1,0.32262392600023304
28,828,Equal_null,0.25,0.25,0.03981071705534971,1,0.30962007500056643
28,829,Equal_null,0.25,0.25,0.031622776601683784,1,0.23273647200039704
28,830,Control_null,0.0,0.1,0.015848931924611127,1,0.2520846799998253
28,831,Equal_null,0.25,0.25,0.02511886431509579,1,0.41651236600228003
28,832,Control_null,0.0,0.1,0.012589254117941666,1,0.3645139670006756
28,833,Equal_null,0.25,0.25,0.01995262314968879,1,0.1407867849993636
28,834,Equal_null,0.25,0.25,0.015848931924611127,1,0.1438076459999138
28,835,Equal_null,0.25,0.25,0.012589254117941666,1,0.30506097599936766
28,836,Equal_null,0.25,0.25,0.009999999999999995,1,0.004252246999385534
28,837,Equal_null,0.25,0.25,0.00794328234724281,1,0.2605673559992283
28,838,Equal_null,0.25,0.25,0.0063095734448019285,1,0.43970834799984004
28,839,Equal_null,0.25,0.25,0.005011872336272719,1,0.3699328409966256
