Participant_Number,Trial_Number,Condition,FC_distal,FC_proximal,Target_Contrast,Correct_Response,Reaction_Time
18,0,Control,0.0,0.1,0.1,1,0.8875073959989095
18,1,Control,0.0,0.1,0.07943282347242815,1,0.6830354140001873
18,2,Equal,0.25,0.25,0.1,1,0.5658086160001403
18,3,Control,0.0,0.25,0.1,1,0.5582710779999616
18,4,Increase,0.1,0.25,0.1,1,0.5464757209992968
18,5,Equal,0.25,0.25,0.07943282347242815,1,0.5556971000005433
18,6,Increase,0.1,0.25,0.07943282347242815,1,0.5828908840012446
18,7,Control,0.0,0.25,0.07943282347242815,1,0.6977481140002055
18,8,Increase,0.1,0.25,0.06309573444801932,1,0.5973163679991558
18,9,Increase,0.1,0.25,0.05011872336272722,1,0.5684325130005163
18,10,Control_null,0.0,0.1,0.1,1,0.6276569089986879
18,11,Decrease,0.25,0.1,0.1,1,0.3267693429988867
18,12,Equal,0.25,0.25,0.06309573444801932,1,0.6202839600009611
18,13,Control,0.0,0.25,0.06309573444801932,1,1.0359301219996269
18,14,Control,0.0,0.1,0.06309573444801932,1,0.8152673569984472
18,15,Decrease,0.25,0.1,0.07943282347242815,1,0.586293170999852
18,16,Control,0.0,0.25,0.05011872336272722,1,0.5547427279998374
18,17,Increase,0.1,0.25,0.03981071705534971,1,0.5497764370011282
18,18,Decrease,0.25,0.1,0.06309573444801932,1,0.43884326400075224
18,19,Control,0.0,0.25,0.03981071705534971,1,0.7463892640007543
18,20,Equal,0.1,0.1,0.1,1,0.5496878600006312
18,21,Equal,0.25,0.25,0.05011872336272722,1,0.6407290169991029
18,22,Control,0.0,0.25,0.031622776601683784,1,0.5876630629991269
18,23,Increase_null,0.1,0.25,0.1,1,0.7920065310008795
18,24,Control,0.0,0.1,0.05011872336272722,1,0.49009083499913686
18,25,Control,0.0,0.25,0.02511886431509579,1,0.5438964400000259
18,26,Control,0.0,0.1,0.03981071705534971,1,0.45538181899974006
18,27,Increase,0.1,0.25,0.031622776601683784,1,0.4586406950002129
18,28,Control,0.0,0.25,0.01995262314968879,1,0.5559635949994117
18,29,Control,0.0,0.1,0.031622776601683784,1,0.5030116569996608
18,30,Increase,0.1,0.25,0.02511886431509579,1,0.41018708599949605
18,31,Control,0.0,0.25,0.015848931924611127,1,0.3886327939999319
18,32,Equal,0.25,0.25,0.03981071705534971,1,0.5197270520002348
18,33,Equal,0.25,0.25,0.031622776601683784,1,0.4505813260002469
18,34,Decrease,0.25,0.1,0.05011872336272722,1,0.41401097099878825
18,35,Control,0.0,0.25,0.012589254117941666,1,0.6502833049999026
18,36,Decrease,0.25,0.1,0.03981071705534971,1,0.3902657979997457
18,37,Control,0.0,0.1,0.02511886431509579,1,0.34592321000127413
18,38,Control,0.0,0.25,0.009999999999999995,0,0.9718456770006014
18,39,Equal,0.25,0.25,0.02511886431509579,1,0.5739552659997571
18,40,Equal,0.1,0.1,0.07943282347242815,1,0.41717956000138656
18,41,Decrease,0.25,0.1,0.031622776601683784,1,0.44135740700039605
18,42,Equal,0.25,0.25,0.01995262314968879,1,0.5324851040004432
18,43,Decrease,0.25,0.1,0.02511886431509579,1,0.49561155200171925
18,44,Equal,0.1,0.1,0.06309573444801932,1,0.3137355849994492
18,45,Equal,0.1,0.1,0.05011872336272722,1,0.22074792100102059
18,46,Equal,0.1,0.1,0.03981071705534971,1,0.22416215100020054
18,47,Control,0.0,0.1,0.01995262314968879,0,0.9726574790001905
18,48,Increase,0.1,0.25,0.01995262314968879,1,0.49678566299917293
18,49,Control,0.0,0.25,0.012589254117941666,0,0.7983445589998155
18,50,Equal,0.25,0.25,0.015848931924611127,1,0.5749459769995156
18,51,Control,0.0,0.1,0.025118864315095794,0,0.6591940729995258
18,52,Increase,0.1,0.25,0.015848931924611127,0,0.691308191000644
18,53,Decrease,0.25,0.1,0.01995262314968879,0,99
18,54,Control,0.0,0.25,0.015848931924611127,1,0.6065091350010334
18,55,Control,0.0,0.25,0.012589254117941666,0,0.633905089000109
18,56,Equal,0.1,0.1,0.031622776601683784,1,0.4063358950006659
18,57,Control,0.0,0.25,0.015848931924611127,1,0.4000670550012728
18,58,Decrease,0.25,0.1,0.025118864315095794,1,0.499461313998836
18,59,Increase,0.1,0.25,0.01995262314968879,1,0.5337681229993905
18,60,Increase,0.1,0.25,0.015848931924611127,0,0.5608819099998072
18,61,Increase,0.1,0.25,0.01995262314968879,1,0.4611124539987941
18,62,Control,0.0,0.25,0.012589254117941666,1,0.7451890649990673
18,63,Equal,0.25,0.25,0.012589254117941666,0,1.0115535169989016
18,64,Control,0.0,0.25,0.009999999999999995,0,0.5746497210002417
18,65,Equal,0.25,0.25,0.015848931924611127,1,0.7667896320017462
18,66,Equal,0.25,0.25,0.012589254117941666,0,0.48982517500007816
18,67,Decrease_null,0.25,0.1,0.1,1,0.570259308000459
18,68,Equal,0.1,0.1,0.02511886431509579,1,0.5093034639994585
18,69,Equal,0.1,0.1,0.01995262314968879,1,0.4005365270004404
18,70,Increase,0.1,0.25,0.015848931924611127,1,0.41077408700039086
18,71,Equal,0.1,0.1,0.015848931924611127,0,0.5337349689998518
18,72,Decrease,0.25,0.1,0.01995262314968879,0,0.4810383730000467
18,73,Decrease_null,0.25,0.1,0.07943282347242815,1,0.5091234680003254
18,74,Control,0.0,0.1,0.031622776601683784,1,0.36142423700039217
18,75,Decrease,0.25,0.1,0.025118864315095794,1,0.33530530799907865
18,76,Control,0.0,0.25,0.012589254117941666,0,0.8159209379991808
18,77,Decrease,0.25,0.1,0.01995262314968879,1,0.4749008499984484
18,78,Control,0.0,0.1,0.02511886431509579,1,0.3312255490000098
18,79,Equal,0.25,0.25,0.015848931924611127,1,0.526230077000946
18,80,Control,0.0,0.1,0.01995262314968879,1,0.43944008099970233
18,81,Increase,0.1,0.25,0.012589254117941666,1,0.362658564999947
18,82,Equal,0.25,0.25,0.012589254117941666,1,0.4138356180010305
18,83,Control,0.0,0.1,0.015848931924611127,1,0.43098953899971093
18,84,Decrease,0.25,0.1,0.015848931924611127,1,0.3302923789997294
18,85,Equal,0.25,0.25,0.009999999999999995,1,0.6375239650005824
18,86,Increase,0.1,0.25,0.009999999999999995,1,0.5524891709992517
18,87,Equal,0.25,0.25,0.00794328234724281,1,0.4538109450004413
18,88,Control_null,0.0,0.1,0.07943282347242815,1,0.5543406690012489
18,89,Equal_null,0.1,0.1,0.1,1,0.5632421350001096
18,90,Control,0.0,0.25,0.015848931924611127,1,0.35038150699983817
18,91,Increase,0.1,0.25,0.00794328234724281,0,0.5104709699990053
18,92,Control,0.0,0.1,0.012589254117941666,0,99
18,93,Control,0.0,0.1,0.015848931924611127,1,0.41084068899908743
18,94,Increase,0.1,0.25,0.009999999999999995,1,0.5581117530000483
18,95,Equal,0.1,0.1,0.01995262314968879,1,0.4572872849985288
18,96,Increase_null,0.1,0.25,0.07943282347242815,0,0.5804740200001106
18,97,Equal,0.25,0.25,0.0063095734448019285,0,0.7913777379999374
18,98,Equal_null,0.1,0.1,0.07943282347242815,1,0.9559879879998334
18,99,Control,0.0,0.25,0.012589254117941666,1,0.47119433100124297
18,100,Increase,0.1,0.25,0.00794328234724281,1,0.5467866649996722
18,101,Increase,0.1,0.25,0.0063095734448019285,0,0.760333977999835
18,102,Increase,0.1,0.25,0.00794328234724281,0,99
18,103,Increase,0.1,0.25,0.009999999999999995,0,0.6288744479988964
18,104,Control,0.0,0.1,0.012589254117941666,1,0.8613129499990464
18,105,Increase,0.1,0.25,0.012589254117941666,1,0.6242564149997634
18,106,Equal,0.25,0.25,0.00794328234724281,1,0.5764627129992732
18,107,Control,0.0,0.25,0.009999999999999995,0,1.2286675839986856
18,108,Equal_null,0.25,0.25,0.1,0,99
18,109,Control,0.0,0.25,0.012589254117941666,1,1.0096976770000765
18,110,Control,0.0,0.25,0.009999999999999995,1,0.37295176800034824
18,111,Control,0.0,0.1,0.009999999999999995,0,0.4801567869999417
18,112,Increase,0.1,0.25,0.009999999999999995,0,1.0115427290002117
18,113,Equal,0.25,0.25,0.0063095734448019285,1,0.6011743670005671
18,114,Increase,0.1,0.25,0.012589254117941666,0,0.9331531839998206
18,115,Control,0.0,0.25,0.00794328234724281,1,0.6059325080004783
18,116,Decrease,0.25,0.1,0.012589254117941666,0,99
18,117,Equal,0.25,0.25,0.005011872336272719,0,0.5781422290001501
18,118,Control,0.0,0.1,0.012589254117941666,0,0.557375187998332
18,119,Equal,0.1,0.1,0.015848931924611127,1,0.31726469899876975
18,120,Equal,0.1,0.1,0.012589254117941666,0,0.6775351380001666
18,121,Control,0.0,0.1,0.015848931924611127,1,0.39888491700003215
18,122,Control,0.0,0.25,0.0063095734448019285,1,0.5779009839989158
18,123,Equal,0.1,0.1,0.015848931924611127,1,0.3232356219996291
18,124,Decrease,0.25,0.1,0.015848931924611127,1,0.32640158600042923
18,125,Decrease,0.25,0.1,0.012589254117941666,1,0.5937525730005291
18,126,Decrease,0.25,0.1,0.009999999999999995,1,0.4526730170000519
18,127,Increase,0.1,0.25,0.015848931924611127,1,0.31180423899968446
18,128,Equal,0.1,0.1,0.012589254117941666,0,0.4660768449994066
18,129,Decrease_null,0.25,0.1,0.06309573444801932,0,1.1023563779999677
18,130,Control,0.0,0.25,0.005011872336272719,0,0.9790038730006927
18,131,Equal,0.25,0.25,0.0063095734448019285,0,0.5676421669995761
18,132,Increase,0.1,0.25,0.012589254117941666,0,0.6239336620001268
18,133,Equal,0.1,0.1,0.015848931924611127,1,0.5551255919999676
18,134,Control,0.0,0.1,0.012589254117941666,0,0.4909032270006719
18,135,Equal_null,0.25,0.25,0.1,1,0.4463396390001435
18,136,Increase,0.1,0.25,0.015848931924611127,1,0.3598026330000721
18,137,Control,0.0,0.1,0.015848931924611127,1,0.7226275049997639
18,138,Increase,0.1,0.25,0.012589254117941666,0,0.5910358060009457
18,139,Increase,0.1,0.25,0.015848931924611127,1,0.3860833939997974
18,140,Decrease,0.25,0.1,0.00794328234724281,0,0.48546315600106027
18,141,Control,0.0,0.1,0.012589254117941666,1,0.5196578809991479
18,142,Decrease,0.25,0.1,0.009999999999999995,1,0.4426496820015018
18,143,Control,0.0,0.25,0.0063095734448019285,0,0.5990614920010557
18,144,Decrease,0.25,0.1,0.00794328234724281,1,0.7072751039995637
18,145,Increase,0.1,0.25,0.012589254117941666,0,0.6193262929991761
18,146,Decrease,0.25,0.1,0.0063095734448019285,0,0.43812745600007474
18,147,Equal,0.1,0.1,0.012589254117941666,0,0.48772824099978607
18,148,Decrease,0.25,0.1,0.00794328234724281,0,0.4429464940003527
18,149,Control,0.0,0.25,0.00794328234724281,0,0.47570026199900894
18,150,Equal,0.1,0.1,0.015848931924611127,0,0.2392314240005362
18,151,Control,0.0,0.25,0.009999999999999995,0,0.45811088499976904
18,152,Control,0.0,0.25,0.012589254117941666,0,0.26960762799899385
18,153,Decrease,0.25,0.1,0.009999999999999995,0,0.4579294609993667
18,154,Control,0.0,0.1,0.009999999999999995,0,0.26879759700022987
18,155,Increase,0.1,0.25,0.015848931924611127,0,0.45619711200015445
18,156,Decrease,0.25,0.1,0.012589254117941666,0,0.3953431379995891
18,157,Equal,0.25,0.25,0.00794328234724281,0,0.3695682840007066
18,158,Decrease,0.25,0.1,0.015848931924611127,1,0.49668995100000757
18,159,Equal,0.25,0.25,0.009999999999999995,1,0.7397049320006772
18,160,Increase_null,0.1,0.25,0.1,1,0.45317383800102107
18,161,Equal,0.1,0.1,0.01995262314968879,1,0.40013701699899684
18,162,Decrease,0.25,0.1,0.012589254117941666,0,0.49049609800022154
18,163,Control,0.0,0.1,0.012589254117941666,0,0.6936767209990649
18,164,Control,0.0,0.25,0.015848931924611127,1,0.8329397380002774
18,165,Equal,0.25,0.25,0.00794328234724281,0,0.49204622700017353
18,166,Equal_null,0.25,0.25,0.07943282347242815,0,0.9991869330006011
18,167,Equal_null,0.1,0.1,0.06309573444801932,1,0.4746920769994176
18,168,Control,0.0,0.1,0.015848931924611127,0,99
18,169,Decrease,0.25,0.1,0.015848931924611127,1,0.6099119629998313
18,170,Control_null,0.0,0.25,0.1,1,0.5259713210016344
18,171,Control,0.0,0.25,0.012589254117941666,0,0.3657980990010401
18,172,Increase,0.1,0.25,0.01995262314968879,0,0.4013273550008307
18,173,Equal,0.25,0.25,0.009999999999999995,0,0.43475146499986295
18,174,Control,0.0,0.25,0.015848931924611127,1,0.49349044999871694
18,175,Decrease,0.25,0.1,0.012589254117941666,0,99
18,176,Equal,0.25,0.25,0.012589254117941666,0,99
18,177,Equal,0.1,0.1,0.015848931924611127,1,0.438411670998903
18,178,Control,0.0,0.1,0.01995262314968879,1,0.5374235369999951
18,179,Decrease,0.25,0.1,0.015848931924611127,1,0.4364618550007435
18,180,Increase,0.1,0.25,0.025118864315095794,1,0.4328178880004998
18,181,Equal,0.25,0.25,0.015848931924611127,1,0.5494542639989959
18,182,Control,0.0,0.1,0.015848931924611127,1,0.42318822800007183
18,183,Control,0.0,0.25,0.012589254117941666,1,0.5079655139998067
18,184,Control,0.0,0.1,0.012589254117941666,1,0.7954562739996618
18,185,Control,0.0,0.25,0.009999999999999995,1,0.43075957799919706
18,186,Decrease,0.25,0.1,0.012589254117941666,0,99
18,187,Equal,0.25,0.25,0.012589254117941666,1,0.6351741620001121
18,188,Decrease,0.25,0.1,0.015848931924611127,1,0.460290802999225
18,189,Control,0.0,0.1,0.009999999999999995,0,0.5766774839994468
18,190,Decrease_null,0.25,0.1,0.07943282347242814,1,0.5559710130000894
18,191,Increase,0.1,0.25,0.01995262314968879,1,0.47077447199990274
18,192,Increase,0.1,0.25,0.015848931924611127,1,0.35361678899971594
18,193,Control,0.0,0.25,0.00794328234724281,0,99
18,194,Control,0.0,0.1,0.012589254117941666,1,0.45057015500060515
18,195,Increase_null,0.1,0.25,0.07943282347242815,1,0.7405615799998486
18,196,Increase,0.1,0.25,0.012589254117941666,1,1.167790577001142
18,197,Equal,0.1,0.1,0.012589254117941666,1,0.7039915240002301
18,198,Decrease,0.25,0.1,0.012589254117941666,1,0.5881103160008934
18,199,Control,0.0,0.25,0.009999999999999995,0,99
18,200,Equal,0.1,0.1,0.009999999999999995,0,0.3016835180005728
18,201,Control,0.0,0.25,0.012589254117941666,0,0.415528543999244
18,202,Control,0.0,0.25,0.015848931924611127,0,0.2669201939988852
18,203,Control,0.0,0.25,0.01995262314968879,0,0.19101004900039698
18,204,Equal,0.25,0.25,0.009999999999999995,0,0.2262599079986103
18,205,Increase,0.1,0.25,0.009999999999999995,0,0.20686011999896436
18,206,Equal,0.1,0.1,0.012589254117941666,0,99
18,207,Increase,0.1,0.25,0.012589254117941666,0,0.3575849200005905
18,208,Equal,0.25,0.25,0.012589254117941666,0,0.22255178500017792
18,209,Equal,0.1,0.1,0.015848931924611127,1,0.4421805999991193
18,210,Equal,0.25,0.25,0.015848931924611127,1,0.5395232739992935
18,211,Equal,0.1,0.1,0.012589254117941666,0,0.6226190809993568
18,212,Equal,0.25,0.25,0.012589254117941666,0,99
18,213,Equal,0.1,0.1,0.015848931924611127,1,0.6099436610002158
18,214,Control,0.0,0.1,0.009999999999999995,1,0.8683084580006835
18,215,Equal,0.25,0.25,0.015848931924611127,1,0.5123018979993503
18,216,Increase,0.1,0.25,0.015848931924611127,1,0.42761373500070476
18,217,Equal,0.25,0.25,0.012589254117941666,1,0.5506717629996274
18,218,Control,0.0,0.25,0.025118864315095794,1,0.41910545700011426
18,219,Decrease,0.25,0.1,0.009999999999999995,1,0.39914129299904744
18,220,Decrease,0.25,0.1,0.00794328234724281,0,99
18,221,Control,0.0,0.1,0.00794328234724281,0,1.0203489289997378
18,222,Decrease,0.25,0.1,0.009999999999999995,0,0.6806601339994813
18,223,Decrease,0.25,0.1,0.012589254117941666,1,0.46479503999944427
18,224,Equal,0.1,0.1,0.012589254117941666,1,0.40408496000054583
18,225,Control,0.0,0.25,0.01995262314968879,1,0.3321822500001872
18,226,Decrease,0.25,0.1,0.009999999999999995,0,0.560309796999718
18,227,Control,0.0,0.25,0.015848931924611127,1,0.21817140299936
18,228,Equal,0.25,0.25,0.009999999999999995,0,0.47753793799893174
18,229,Equal,0.25,0.25,0.012589254117941666,0,0.600921709999966
18,230,Equal,0.1,0.1,0.009999999999999995,0,0.5241256209992571
18,231,Equal,0.1,0.1,0.012589254117941666,1,0.4483673220001947
18,232,Decrease,0.25,0.1,0.012589254117941666,1,0.45361601900003734
18,233,Control,0.0,0.25,0.012589254117941666,0,1.0031284729993786
18,234,Increase,0.1,0.25,0.012589254117941666,0,0.5788022569995519
18,235,Equal,0.25,0.25,0.015848931924611127,1,0.36712823000016215
18,236,Increase,0.1,0.25,0.015848931924611127,1,0.5273261209986231
18,237,Equal,0.25,0.25,0.012589254117941666,1,0.46644282000124804
18,238,Decrease,0.25,0.1,0.009999999999999995,0,0.5627231029993709
18,239,Decrease,0.25,0.1,0.012589254117941666,0,99
18,240,Control_null,0.0,0.1,0.06309573444801932,1,0.44440955000027316
18,241,Control,0.0,0.25,0.015848931924611127,0,0.3751734020006552
18,242,Equal,0.1,0.1,0.009999999999999995,0,0.4483948400011286
18,243,Control,0.0,0.25,0.01995262314968879,1,0.4516600599999947
18,244,Control,0.0,0.1,0.009999999999999995,1,0.478892449000341
18,245,Equal,0.25,0.25,0.009999999999999995,0,0.5188014599989401
18,246,Decrease,0.25,0.1,0.015848931924611127,1,0.3300201450001623
18,247,Equal,0.25,0.25,0.012589254117941666,0,0.6864760570006183
18,248,Decrease,0.25,0.1,0.012589254117941666,1,0.6015938979999191
18,249,Control,0.0,0.25,0.015848931924611127,1,0.565119238999614
18,250,Equal,0.1,0.1,0.012589254117941666,1,0.33611553800074034
18,251,Decrease,0.25,0.1,0.009999999999999995,0,0.5084233580000728
18,252,Control,0.0,0.1,0.00794328234724281,0,0.4259481009994488
18,253,Control_null,0.0,0.1,0.05011872336272722,1,0.43428904699976556
18,254,Control,0.0,0.1,0.009999999999999995,0,0.6057089980004093
18,255,Control,0.0,0.25,0.012589254117941666,0,99
18,256,Equal,0.1,0.1,0.009999999999999995,1,0.5211036109994893
18,257,Equal,0.25,0.25,0.015848931924611127,1,0.47737336099999084
18,258,Control,0.0,0.25,0.015848931924611127,1,0.3314479760010727
18,259,Equal,0.1,0.1,0.00794328234724281,0,0.5423130069993931
18,260,Equal,0.25,0.25,0.012589254117941666,0,99
18,261,Increase,0.1,0.25,0.012589254117941666,0,0.49320078599885164
18,262,Increase,0.1,0.25,0.015848931924611127,1,0.560376184001143
18,263,Decrease,0.25,0.1,0.012589254117941666,0,99
18,264,Equal,0.25,0.25,0.015848931924611127,0,0.3930938850007806
18,265,Increase,0.1,0.25,0.012589254117941666,0,0.3970045799997024
18,266,Control,0.0,0.25,0.012589254117941666,0,0.3900622810015193
18,267,Control,0.0,0.1,0.012589254117941666,0,0.4090697719984746
18,268,Equal,0.25,0.25,0.01995262314968879,0,0.49038075499993283
18,269,Control,0.0,0.1,0.015848931924611127,1,0.6445615289994748
18,270,Control,0.0,0.25,0.015848931924611127,1,0.46177674700084026
18,271,Equal,0.25,0.25,0.025118864315095794,1,0.2648599980002473
18,272,Decrease,0.25,0.1,0.015848931924611127,1,0.3403603500009922
18,273,Equal,0.1,0.1,0.009999999999999995,1,0.8633521560004738
18,274,Control,0.0,0.1,0.012589254117941666,0,0.5621551660005935
18,275,Control,0.0,0.25,0.012589254117941666,0,0.30167651400006434
18,276,Control,0.0,0.25,0.015848931924611127,1,0.48207000799993693
18,277,Equal,0.25,0.25,0.01995262314968879,1,0.30140896199918643
18,278,Control,0.0,0.25,0.012589254117941666,0,0.8424694149998686
18,279,Decrease,0.25,0.1,0.012589254117941666,0,1.227396835000036
18,280,Equal,0.1,0.1,0.00794328234724281,1,0.4306176339996455
18,281,Control,0.0,0.1,0.015848931924611127,0,0.3586422010012029
18,282,Equal_null,0.25,0.25,0.1,1,0.4259364000008645
18,283,Increase,0.1,0.25,0.015848931924611127,1,0.3791339319996041
18,284,Equal,0.25,0.25,0.015848931924611127,1,0.35038901699954295
18,285,Control,0.0,0.1,0.01995262314968879,1,0.29839115100003255
18,286,Equal,0.1,0.1,0.0063095734448019285,0,0.6059921659998508
18,287,Decrease,0.25,0.1,0.015848931924611127,1,0.4088913149989821
18,288,Control,0.0,0.1,0.015848931924611127,1,1.1802013109991094
18,289,Equal,0.25,0.25,0.012589254117941666,0,0.5431009040003119
18,290,Control,0.0,0.1,0.012589254117941666,1,0.3885124860007636
18,291,Decrease,0.25,0.1,0.012589254117941666,1,0.3278149760008091
18,292,Decrease,0.25,0.1,0.009999999999999995,1,0.38487974499912525
18,293,Increase,0.1,0.25,0.012589254117941666,0,99
18,294,Decrease,0.25,0.1,0.00794328234724281,1,0.4522143040012452
18,295,Equal,0.1,0.1,0.00794328234724281,0,99
18,296,Decrease_null,0.25,0.1,0.06309573444801932,0,0.6498430430001463
18,297,Control,0.0,0.1,0.009999999999999995,1,0.46872919900124543
18,298,Equal,0.25,0.25,0.015848931924611127,1,0.35197971100024006
18,299,Control_null,0.0,0.1,0.03981071705534971,1,0.8989006360006897
18,300,Equal,0.1,0.1,0.009999999999999995,1,0.3663625689987384
18,301,Decrease,0.25,0.1,0.0063095734448019285,0,0.4336088630006998
18,302,Control,0.0,0.1,0.00794328234724281,1,0.34109812899987446
18,303,Equal,0.1,0.1,0.00794328234724281,0,0.5940306459997373
18,304,Equal,0.1,0.1,0.009999999999999995,0,0.7813901110002917
18,305,Decrease_null,0.25,0.1,0.07943282347242814,1,0.6133355090005352
18,306,Control,0.0,0.1,0.0063095734448019285,0,0.7601905240007909
18,307,Increase,0.1,0.25,0.015848931924611127,1,0.3534296630004974
18,308,Control,0.0,0.1,0.00794328234724281,0,99
18,309,Decrease,0.25,0.1,0.00794328234724281,1,0.4617117550005787
18,310,Increase,0.1,0.25,0.012589254117941666,0,99
18,311,Decrease,0.25,0.1,0.0063095734448019285,0,0.3964949430010165
18,312,Increase,0.1,0.25,0.015848931924611127,0,0.5844483890014089
18,313,Decrease,0.25,0.1,0.00794328234724281,0,99
18,314,Equal,0.1,0.1,0.012589254117941666,0,0.3588473440013331
18,315,Equal,0.1,0.1,0.015848931924611127,0,0.4031143249994784
18,316,Increase,0.1,0.25,0.01995262314968879,1,0.3633595510000305
18,317,Equal,0.1,0.1,0.01995262314968879,1,0.6076289580014418
18,318,Equal_null,0.25,0.25,0.07943282347242815,1,0.31151626400060195
18,319,Equal,0.1,0.1,0.015848931924611127,1,0.3949340380004287
18,320,Decrease_null,0.25,0.1,0.06309573444801932,1,0.3153559069996845
18,321,Decrease_null,0.25,0.1,0.05011872336272722,1,0.2221920690008119
18,322,Equal,0.25,0.25,0.012589254117941666,0,0.44829976100118074
18,323,Equal,0.25,0.25,0.015848931924611127,1,0.41968082600033085
18,324,Control_null,0.0,0.1,0.031622776601683784,1,0.4467804100004287
18,325,Control,0.0,0.1,0.009999999999999995,0,0.1777964279990556
18,326,Control,0.0,0.1,0.012589254117941666,0,0.9094869460004702
18,327,Decrease_null,0.25,0.1,0.03981071705534971,1,0.577449261001675
18,328,Increase,0.1,0.25,0.015848931924611127,1,0.33358981600031257
18,329,Equal,0.25,0.25,0.012589254117941666,1,0.6094331860003876
18,330,Control,0.0,0.25,0.015848931924611127,0,0.5160781060003501
18,331,Equal,0.1,0.1,0.012589254117941666,1,0.3476957870007027
18,332,Equal_null,0.25,0.25,0.06309573444801932,0,99
18,333,Equal_null,0.25,0.25,0.07943282347242814,1,0.4794738000000507
18,334,Control,0.0,0.25,0.01995262314968879,1,0.2837029510010325
18,335,Control,0.0,0.25,0.015848931924611127,1,0.3899106999997457
18,336,Increase,0.1,0.25,0.012589254117941666,0,99
18,337,Decrease,0.25,0.1,0.009999999999999995,0,0.5883708530000149
18,338,Equal,0.1,0.1,0.009999999999999995,1,0.5112612880002416
18,339,Decrease,0.25,0.1,0.012589254117941666,0,0.46652185799939616
18,340,Control_null,0.0,0.25,0.07943282347242815,1,0.5905491359990265
18,341,Control,0.0,0.25,0.012589254117941666,0,0.387122656999054
18,342,Control,0.0,0.25,0.015848931924611127,1,0.4608128140007466
18,343,Equal,0.1,0.1,0.00794328234724281,1,0.6412796330005222
18,344,Decrease,0.25,0.1,0.015848931924611127,1,0.20142808400123613
18,345,Decrease,0.25,0.1,0.012589254117941666,1,0.2686947570000484
18,346,Control,0.0,0.25,0.012589254117941666,0,0.500826760999189
18,347,Equal,0.25,0.25,0.009999999999999995,0,99
18,348,Decrease_null,0.25,0.1,0.031622776601683784,1,0.4022940719987673
18,349,Control,0.0,0.1,0.015848931924611127,1,0.5427008049991855
18,350,Equal,0.25,0.25,0.012589254117941666,0,0.4334184269991965
18,351,Decrease,0.25,0.1,0.009999999999999995,1,0.48519943000064814
18,352,Control,0.0,0.25,0.015848931924611127,1,0.5360190209994471
18,353,Control,0.0,0.25,0.012589254117941666,0,0.48448827500033076
18,354,Control,0.0,0.25,0.015848931924611127,0,99
18,355,Decrease,0.25,0.1,0.00794328234724281,1,0.43457796400070947
18,356,Control,0.0,0.25,0.01995262314968879,1,0.3335107359998801
18,357,Decrease,0.25,0.1,0.0063095734448019285,0,0.5099502989996836
18,358,Equal,0.25,0.25,0.015848931924611127,1,0.5059905489997618
18,359,Equal,0.1,0.1,0.0063095734448019285,1,0.5860339129994827
18,360,Control,0.0,0.1,0.012589254117941666,0,0.47093144899918116
18,361,Control,0.0,0.1,0.015848931924611127,1,0.41008187899933546
18,362,Equal,0.1,0.1,0.005011872336272719,0,0.5260946990001685
18,363,Equal,0.1,0.1,0.0063095734448019285,0,0.4892631659986364
18,364,Control,0.0,0.25,0.015848931924611127,1,0.9932602819990279
18,365,Control,0.0,0.1,0.012589254117941666,0,0.8054820630004542
18,366,Equal,0.1,0.1,0.00794328234724281,0,0.43781932099955156
18,367,Control,0.0,0.1,0.015848931924611127,0,0.4237578209995263
18,368,Equal,0.1,0.1,0.009999999999999995,0,0.4910657029995491
18,369,Control,0.0,0.25,0.012589254117941666,0,0.6452605539998331
18,370,Equal,0.25,0.25,0.012589254117941666,0,0.44858045100045274
18,371,Control,0.0,0.25,0.015848931924611127,1,0.41155899399927875
18,372,Equal,0.1,0.1,0.012589254117941666,1,0.3695135720008693
18,373,Control,0.0,0.25,0.012589254117941666,1,0.35856339800011483
18,374,Control,0.0,0.25,0.009999999999999995,1,0.5030436600009125
18,375,Equal,0.1,0.1,0.009999999999999995,0,0.47420590100045956
18,376,Equal,0.25,0.25,0.015848931924611127,1,0.4054134800007887
18,377,Increase,0.1,0.25,0.015848931924611127,1,0.31086385500020697
18,378,Decrease,0.25,0.1,0.00794328234724281,0,0.46601969900075346
18,379,Control,0.0,0.25,0.00794328234724281,1,0.5623969759999454
18,380,Control,0.0,0.1,0.01995262314968879,0,0.5016149240000232
18,381,Equal,0.1,0.1,0.012589254117941666,1,0.3523776980000548
18,382,Increase,0.1,0.25,0.012589254117941666,0,0.42742242400163377
18,383,Decrease,0.25,0.1,0.009999999999999995,1,0.45481694100089953
18,384,Control,0.0,0.25,0.0063095734448019285,0,0.4433482639997237
18,385,Increase,0.1,0.25,0.015848931924611127,0,0.64802051299921
18,386,Decrease,0.25,0.1,0.00794328234724281,0,0.45303413099827594
18,387,Increase,0.1,0.25,0.01995262314968879,1,0.31366318999971554
18,388,Decrease,0.25,0.1,0.009999999999999995,0,0.5790348219998123
18,389,Equal,0.25,0.25,0.012589254117941666,0,0.4861534619994927
18,390,Increase,0.1,0.25,0.015848931924611127,1,0.5583689109989791
18,391,Equal,0.25,0.25,0.015848931924611127,1,0.4331346479993954
18,392,Equal,0.1,0.1,0.009999999999999995,1,0.45760969600087265
18,393,Control,0.0,0.1,0.025118864315095794,1,0.3978707240003132
18,394,Equal,0.25,0.25,0.012589254117941666,1,0.6569478130004427
18,395,Equal,0.1,0.1,0.00794328234724281,0,0.4442122870004823
18,396,Decrease,0.25,0.1,0.012589254117941666,1,0.44706198499989114
18,397,Control,0.0,0.25,0.00794328234724281,1,0.4342598249986622
18,398,Equal,0.1,0.1,0.009999999999999995,0,0.5598697459990944
18,399,Decrease,0.25,0.1,0.009999999999999995,1,0.46812577700075053
18,400,Decrease,0.25,0.1,0.00794328234724281,1,0.3182081629984168
18,401,Increase,0.1,0.25,0.012589254117941666,0,0.5931286069990165
18,402,Control,0.0,0.1,0.01995262314968879,1,0.3402175610008271
18,403,Equal,0.25,0.25,0.009999999999999995,0,0.5977043069997308
18,404,Control,0.0,0.25,0.0063095734448019285,0,0.40094477599996026
18,405,Equal,0.1,0.1,0.012589254117941666,0,0.4732206270000461
18,406,Equal,0.1,0.1,0.015848931924611127,0,0.46840622699892265
18,407,Equal,0.25,0.25,0.012589254117941666,0,0.4629771340005391
18,408,Equal,0.1,0.1,0.01995262314968879,1,0.6746067249987391
18,409,Control,0.0,0.25,0.00794328234724281,0,0.4938008640001499
18,410,Control,0.0,0.25,0.009999999999999995,1,0.7288384069997846
18,411,Control_null,0.0,0.25,0.06309573444801932,1,0.7818695099995239
18,412,Increase,0.1,0.25,0.015848931924611127,0,0.7707071879995055
18,413,Decrease_null,0.25,0.1,0.02511886431509579,0,0.36804103500071506
18,414,Equal,0.1,0.1,0.015848931924611127,1,0.32874420799998916
18,415,Equal_null,0.1,0.1,0.05011872336272722,1,0.740062905000741
18,416,Control,0.0,0.25,0.00794328234724281,0,0.45197667600041314
18,417,Control,0.0,0.1,0.015848931924611127,1,0.3339799650002533
18,418,Control,0.0,0.1,0.012589254117941666,1,0.5755272949991195
18,419,Equal,0.1,0.1,0.012589254117941666,1,0.3625549629996385
18,420,Control,0.0,0.25,0.009999999999999995,0,0.5655168840003171
18,421,Control,0.0,0.1,0.009999999999999995,0,0.6571167740003148
18,422,Equal,0.25,0.25,0.015848931924611127,1,0.3413329729992256
18,423,Equal_null,0.1,0.1,0.03981071705534971,1,0.5283858450002299
18,424,Control_null,0.0,0.1,0.02511886431509579,1,0.4208519450003223
18,425,Equal,0.1,0.1,0.009999999999999995,0,0.4731033070002013
18,426,Control,0.0,0.1,0.012589254117941666,1,0.44688168699940434
18,427,Control,0.0,0.1,0.009999999999999995,0,0.5592433410001831
18,428,Increase,0.1,0.25,0.01995262314968879,1,0.3302509999994072
18,429,Increase_null,0.1,0.25,0.06309573444801932,1,0.47424448400124675
18,430,Equal,0.1,0.1,0.012589254117941666,0,99
18,431,Equal,0.25,0.25,0.012589254117941666,1,0.35906035600055475
18,432,Control,0.0,0.25,0.012589254117941666,0,0.5288115410003229
18,433,Increase,0.1,0.25,0.015848931924611127,1,0.3400939090006432
18,434,Control_null,0.0,0.25,0.05011872336272722,0,99
18,435,Control,0.0,0.25,0.015848931924611127,1,0.3237190979998559
18,436,Control,0.0,0.25,0.012589254117941666,0,99
18,437,Decrease,0.25,0.1,0.0063095734448019285,0,99
18,438,Increase,0.1,0.25,0.012589254117941666,0,99
18,439,Equal,0.25,0.25,0.009999999999999995,0,99
18,440,Control,0.0,0.1,0.012589254117941666,1,0.8119441619983263
18,441,Decrease,0.25,0.1,0.00794328234724281,0,0.8307174179990398
18,442,Control,0.0,0.1,0.009999999999999995,1,0.4479004189997795
18,443,Equal,0.25,0.25,0.012589254117941666,1,0.29921515000023646
18,444,Equal,0.1,0.1,0.015848931924611127,1,0.4123803570000746
18,445,Control,0.0,0.1,0.00794328234724281,1,0.39152135200129123
18,446,Decrease,0.25,0.1,0.009999999999999995,0,0.5146134269998583
18,447,Equal,0.1,0.1,0.012589254117941666,1,0.9338223219983774
18,448,Equal,0.25,0.25,0.009999999999999995,0,99
18,449,Decrease,0.25,0.1,0.012589254117941666,0,99
18,450,Equal,0.25,0.25,0.012589254117941666,0,0.8005874210011825
18,451,Equal,0.25,0.25,0.015848931924611127,0,0.5157184220006457
18,452,Control,0.0,0.25,0.015848931924611127,1,0.47684907900111284
18,453,Equal,0.1,0.1,0.009999999999999995,1,0.527936125999986
18,454,Increase,0.1,0.25,0.015848931924611127,1,0.32311613599995326
18,455,Decrease,0.25,0.1,0.015848931924611127,1,0.45145384299939906
18,456,Decrease,0.25,0.1,0.012589254117941666,1,0.47878105500058155
18,457,Equal,0.25,0.25,0.01995262314968879,1,0.3517558359999384
18,458,Equal,0.1,0.1,0.00794328234724281,0,99
18,459,Equal,0.1,0.1,0.009999999999999995,1,0.32717141800094396
18,460,Increase_null,0.1,0.25,0.05011872336272722,1,0.6024788770009764
18,461,Equal,0.25,0.25,0.015848931924611127,1,0.3335359459997562
18,462,Equal,0.1,0.1,0.00794328234724281,1,0.4016702760000044
18,463,Control,0.0,0.25,0.012589254117941666,1,0.47574461700060056
18,464,Decrease,0.25,0.1,0.009999999999999995,1,0.22396904800007178
18,465,Control,0.0,0.1,0.0063095734448019285,0,99
18,466,Equal,0.1,0.1,0.0063095734448019285,1,0.3164217789999384
18,467,Equal,0.25,0.25,0.012589254117941666,0,99
18,468,Control,0.0,0.25,0.009999999999999995,0,99
18,469,Equal_null,0.25,0.25,0.06309573444801932,1,0.5553289070012397
18,470,Decrease,0.25,0.1,0.00794328234724281,1,0.2291784919998463
18,471,Control,0.0,0.25,0.012589254117941666,1,0.37625661700076307
18,472,Increase,0.1,0.25,0.012589254117941666,1,0.4756822020008258
18,473,Control,0.0,0.1,0.00794328234724281,0,99
18,474,Increase,0.1,0.25,0.009999999999999995,0,0.44192755299991404
18,475,Decrease,0.25,0.1,0.0063095734448019285,0,99
18,476,Control,0.0,0.1,0.009999999999999995,1,0.35255189599956793
18,477,Control,0.0,0.1,0.00794328234724281,0,99
18,478,Control,0.0,0.1,0.009999999999999995,0,99
18,479,Control,0.0,0.1,0.012589254117941666,0,0.671955252000771
18,480,Decrease,0.25,0.1,0.00794328234724281,1,0.7075106699994649
18,481,Decrease,0.25,0.1,0.0063095734448019285,0,0.5221514819986623
18,482,Equal,0.25,0.25,0.015848931924611127,1,0.3743011189999379
18,483,Equal,0.25,0.25,0.012589254117941666,0,0.45483975000024657
18,484,Equal_null,0.25,0.25,0.05011872336272722,1,0.37790583500100183
18,485,Equal,0.25,0.25,0.015848931924611127,1,0.5783033500010788
18,486,Decrease,0.25,0.1,0.00794328234724281,1,0.6212555279998924
18,487,Control,0.0,0.1,0.015848931924611127,1,0.22276975800014043
18,488,Decrease,0.25,0.1,0.0063095734448019285,0,0.4098029470005713
18,489,Equal_null,0.1,0.1,0.031622776601683784,1,0.5481624720014224
18,490,Control,0.0,0.25,0.009999999999999995,1,0.6551347530003113
18,491,Equal,0.1,0.1,0.005011872336272719,1,0.6081470239987539
18,492,Equal,0.25,0.25,0.012589254117941666,0,0.6925422460008122
18,493,Decrease,0.25,0.1,0.00794328234724281,1,0.7757538890000433
18,494,Control,0.0,0.25,0.00794328234724281,1,0.362806069000726
18,495,Increase,0.1,0.25,0.012589254117941666,0,0.6612258650002332
18,496,Control,0.0,0.1,0.012589254117941666,1,0.4902986470005999
18,497,Control,0.0,0.1,0.009999999999999995,1,0.581673991999196
18,498,Decrease_null,0.25,0.1,0.031622776601683784,1,0.541542129998561
18,499,Equal_null,0.1,0.1,0.02511886431509579,0,0.49656112500088057
18,500,Equal,0.1,0.1,0.00398107170553497,0,99
18,501,Decrease,0.25,0.1,0.0063095734448019285,0,99
18,502,Equal,0.25,0.25,0.015848931924611127,0,0.4395281449997128
18,503,Decrease,0.25,0.1,0.00794328234724281,0,99
18,504,Control,0.0,0.25,0.0063095734448019285,0,0.413931560000492
18,505,Control_null,0.0,0.1,0.01995262314968879,1,0.5371035009993648
18,506,Control,0.0,0.1,0.00794328234724281,0,0.4457232969998586
18,507,Decrease,0.25,0.1,0.009999999999999995,0,0.5306984339986229
18,508,Control,0.0,0.25,0.00794328234724281,0,99
18,509,Increase,0.1,0.25,0.015848931924611127,1,0.5916387779998331
18,510,Increase,0.1,0.25,0.012589254117941666,1,0.40275541600021825
18,511,Equal,0.25,0.25,0.01995262314968879,1,0.37105958299980557
18,512,Control,0.0,0.25,0.009999999999999995,0,0.510491232998902
18,513,Equal,0.1,0.1,0.00501187233627272,0,99
18,514,Control,0.0,0.1,0.009999999999999995,0,99
18,515,Equal,0.25,0.25,0.015848931924611127,1,0.37405177499931597
18,516,Equal,0.25,0.25,0.012589254117941666,0,99
18,517,Equal,0.1,0.1,0.006309573444801929,0,0.6030073500005528
18,518,Equal,0.25,0.25,0.015848931924611127,1,0.40645400100038387
18,519,Increase_null,0.1,0.25,0.03981071705534971,0,99
18,520,Decrease,0.25,0.1,0.012589254117941666,0,99
18,521,Equal,0.25,0.25,0.012589254117941666,0,99
18,522,Equal,0.1,0.1,0.007943282347242812,1,0.5482257949988707
18,523,Increase,0.1,0.25,0.009999999999999995,1,0.519041505000132
18,524,Equal,0.25,0.25,0.015848931924611127,1,0.2873595849996491
18,525,Control,0.0,0.1,0.012589254117941666,0,99
18,526,Control,0.0,0.25,0.012589254117941666,0,99
18,527,Control,0.0,0.25,0.015848931924611127,0,99
18,528,Increase,0.1,0.25,0.00794328234724281,1,0.38606385000093724
18,529,Decrease,0.25,0.1,0.015848931924611127,1,0.5014243690002331
18,530,Equal,0.25,0.25,0.012589254117941666,1,0.2805040849998477
18,531,Increase,0.1,0.25,0.0063095734448019285,0,99
18,532,Control,0.0,0.25,0.01995262314968879,1,0.4006169989988848
18,533,Control,0.0,0.25,0.015848931924611127,0,0.30944018800073536
18,534,Decrease,0.25,0.1,0.012589254117941666,1,0.3304018430008
18,535,Equal,0.25,0.25,0.009999999999999995,1,0.2915520970000216
18,536,Decrease,0.25,0.1,0.009999999999999995,1,0.3747572450010921
18,537,Increase,0.1,0.25,0.00794328234724281,0,0.6066785600014555
18,538,Control_null,0.0,0.1,0.015848931924611127,1,0.3379200880008284
18,539,Increase,0.1,0.25,0.009999999999999995,1,0.522455386000729
18,540,Increase,0.1,0.25,0.00794328234724281,1,0.36570743800075434
18,541,Increase,0.1,0.25,0.0063095734448019285,0,0.512651580000238
18,542,Equal,0.25,0.25,0.00794328234724281,0,99
18,543,Decrease_null,0.25,0.1,0.02511886431509579,0,0.4389336940002977
18,544,Control,0.0,0.1,0.015848931924611127,1,0.40330844200070715
18,545,Control,0.0,0.1,0.012589254117941666,0,99
18,546,Equal_null,0.1,0.1,0.031622776601683784,0,0.3319304420001572
18,547,Control,0.0,0.25,0.01995262314968879,0,0.7048075119982968
18,548,Increase,0.1,0.25,0.00794328234724281,0,0.52196544599974
18,549,Decrease,0.25,0.1,0.00794328234724281,0,0.5232504309988144
18,550,Control,0.0,0.25,0.025118864315095794,1,0.30747097399944323
18,551,Decrease,0.25,0.1,0.009999999999999995,0,99
18,552,Control,0.0,0.25,0.01995262314968879,1,0.28763279899976624
18,553,Control,0.0,0.1,0.015848931924611127,1,0.2658995860001596
18,554,Equal,0.1,0.1,0.006309573444801929,0,99
18,555,Equal,0.25,0.25,0.009999999999999995,0,99
18,556,Increase,0.1,0.25,0.009999999999999995,1,0.22747789499953797
18,557,Equal,0.1,0.1,0.007943282347242812,0,0.47163370800080884
18,558,Equal,0.1,0.1,0.009999999999999997,1,0.44437410099999397
18,559,Increase,0.1,0.25,0.00794328234724281,0,99
18,560,Increase,0.1,0.25,0.009999999999999995,0,99
18,561,Control,0.0,0.25,0.015848931924611127,1,0.5412129159994947
18,562,Control,0.0,0.1,0.012589254117941666,1,0.43266311300067173
18,563,Equal,0.1,0.1,0.007943282347242812,1,0.3848321510013193
18,564,Decrease,0.25,0.1,0.012589254117941666,1,0.5490842899998825
18,565,Equal,0.25,0.25,0.012589254117941666,0,99
18,566,Decrease,0.25,0.1,0.009999999999999995,0,0.5279803480007104
18,567,Equal,0.1,0.1,0.006309573444801929,0,0.47569656599989685
18,568,Control,0.0,0.25,0.012589254117941666,1,0.5093872389988974
18,569,Increase,0.1,0.25,0.012589254117941666,0,0.4739711649999663
18,570,Equal,0.25,0.25,0.015848931924611127,1,0.34117781199893216
18,571,Increase,0.1,0.25,0.015848931924611127,1,0.38573675099905813
18,572,Control,0.0,0.1,0.009999999999999995,1,0.5101437560006161
18,573,Control,0.0,0.1,0.00794328234724281,1,0.6387303369992878
18,574,Equal,0.1,0.1,0.007943282347242812,1,0.5310423330010963
18,575,Control,0.0,0.1,0.0063095734448019285,0,99
18,576,Equal_null,0.25,0.25,0.03981071705534971,1,0.5982052509989444
18,577,Control,0.0,0.1,0.00794328234724281,1,0.5373975410002458
18,578,Increase,0.1,0.25,0.012589254117941666,1,0.538522656999703
18,579,Control,0.0,0.25,0.009999999999999995,1,0.33366817200112564
18,580,Control,0.0,0.25,0.00794328234724281,0,0.6489957670000877
18,581,Equal,0.25,0.25,0.012589254117941666,0,0.397232706000068
18,582,Equal,0.1,0.1,0.006309573444801929,0,0.3520833290003793
18,583,Equal,0.1,0.1,0.007943282347242812,0,99
18,584,Equal,0.1,0.1,0.009999999999999997,0,0.45660987500014016
18,585,Equal,0.25,0.25,0.015848931924611127,0,0.17989841300004628
18,586,Increase,0.1,0.25,0.009999999999999995,0,99
18,587,Equal,0.25,0.25,0.01995262314968879,0,0.5855044580002868
18,588,Control_null,0.0,0.25,0.06309573444801932,1,0.4685614419995545
18,589,Equal,0.25,0.25,0.025118864315095794,1,0.3725004739990254
18,590,Control,0.0,0.25,0.009999999999999995,0,0.4959187700005714
18,591,Decrease,0.25,0.1,0.012589254117941666,1,0.7369105039997521
18,592,Increase_null,0.1,0.25,0.05011872336272721,0,99
18,593,Control,0.0,0.25,0.012589254117941666,0,99
18,594,Decrease,0.25,0.1,0.009999999999999995,0,0.4997348659999261
18,595,Control,0.0,0.1,0.0063095734448019285,0,0.53444332700019
18,596,Equal,0.25,0.25,0.01995262314968879,1,0.35380697199980204
18,597,Control,0.0,0.25,0.015848931924611127,1,0.301013468999372
18,598,Equal,0.1,0.1,0.012589254117941668,1,0.263991232999615
18,599,Control,0.0,0.25,0.012589254117941666,0,99
18,600,Control,0.0,0.25,0.015848931924611127,1,0.4197693249989243
18,601,Increase,0.1,0.25,0.012589254117941666,0,0.5590376809996087
18,602,Equal,0.1,0.1,0.009999999999999997,1,0.4341619859987986
18,603,Control,0.0,0.25,0.012589254117941666,1,0.389372801000718
18,604,Decrease,0.25,0.1,0.012589254117941666,1,0.4244904779989156
18,605,Control,0.0,0.25,0.009999999999999995,0,99
18,606,Control,0.0,0.25,0.012589254117941666,0,99
18,607,Equal,0.25,0.25,0.015848931924611127,1,0.3338880989995232
18,608,Decrease,0.25,0.1,0.009999999999999995,0,0.43117992599945865
18,609,Equal,0.1,0.1,0.007943282347242812,1,0.5386616150008194
18,610,Control,0.0,0.25,0.015848931924611127,0,99
18,611,Control,0.0,0.25,0.01995262314968879,0,99
18,612,Control,0.0,0.1,0.00794328234724281,1,0.25102567599969916
18,613,Decrease_null,0.25,0.1,0.031622776601683784,1,0.42230706800000917
18,614,Control,0.0,0.25,0.025118864315095794,1,0.32958721300019533
18,615,Increase,0.1,0.25,0.015848931924611127,1,0.3566389709994837
18,616,Decrease,0.25,0.1,0.012589254117941666,1,0.36747865799952706
18,617,Equal,0.25,0.25,0.012589254117941666,1,0.29913347699948645
18,618,Decrease,0.25,0.1,0.009999999999999995,1,0.22205312000005506
18,619,Equal,0.25,0.25,0.009999999999999995,0,99
18,620,Increase,0.1,0.25,0.012589254117941666,0,99
18,621,Decrease,0.25,0.1,0.00794328234724281,0,99
18,622,Control,0.0,0.25,0.01995262314968879,1,0.4779539589999331
18,623,Increase,0.1,0.25,0.015848931924611127,1,0.25608979699973133
18,624,Decrease,0.25,0.1,0.009999999999999995,1,0.44332897499953106
18,625,Decrease,0.25,0.1,0.00794328234724281,0,99
18,626,Control_null,0.0,0.1,0.012589254117941666,1,0.569671749999543
18,627,Equal,0.1,0.1,0.006309573444801929,0,99
18,628,Equal,0.1,0.1,0.007943282347242812,1,0.3212027549998311
18,629,Increase,0.1,0.25,0.012589254117941666,0,0.5172126259985816
18,630,Increase,0.1,0.25,0.015848931924611127,1,0.2954083989989158
18,631,Control,0.0,0.25,0.015848931924611127,1,0.25073707200135686
18,632,Decrease,0.25,0.1,0.009999999999999995,0,99
18,633,Equal,0.25,0.25,0.012589254117941666,0,99
18,634,Decrease,0.25,0.1,0.012589254117941666,0,99
18,635,Equal,0.25,0.25,0.015848931924611127,1,0.28206262700041407
18,636,Increase,0.1,0.25,0.012589254117941666,0,99
18,637,Equal,0.25,0.25,0.012589254117941666,0,99
18,638,Control,0.0,0.1,0.0063095734448019285,0,99
18,639,Increase,0.1,0.25,0.015848931924611127,0,99
18,640,Control,0.0,0.25,0.012589254117941666,1,0.3544813959997555
18,641,Control,0.0,0.25,0.009999999999999995,0,99
18,642,Control,0.0,0.1,0.00794328234724281,1,0.4039228740002727
18,643,Equal,0.1,0.1,0.006309573444801929,1,0.5487315519985714
18,644,Control,0.0,0.1,0.0063095734448019285,0,99
18,645,Decrease,0.25,0.1,0.015848931924611127,1,0.2251662149992626
18,646,Decrease,0.25,0.1,0.012589254117941666,1,0.26028750099976605
18,647,Decrease,0.25,0.1,0.009999999999999995,1,0.30929793900031655
18,648,Control,0.0,0.25,0.012589254117941666,0,99
18,649,Control,0.0,0.1,0.00794328234724281,1,0.36305171699859784
18,650,Equal_null,0.1,0.1,0.03981071705534971,0,99
18,651,Equal,0.25,0.25,0.015848931924611127,1,0.24941443100033212
18,652,Equal,0.25,0.25,0.012589254117941666,1,0.49248981900018407
18,653,Control,0.0,0.25,0.015848931924611127,1,0.2556654609998077
18,654,Equal_null,0.25,0.25,0.031622776601683784,0,99
18,655,Decrease,0.25,0.1,0.00794328234724281,0,99
18,656,Equal_null,0.25,0.25,0.03981071705534971,0,99
18,657,Increase,0.1,0.25,0.01995262314968879,1,0.2375311289997626
18,658,Equal,0.1,0.1,0.00501187233627272,0,99
18,659,Control,0.0,0.25,0.012589254117941666,0,99
18,660,Decrease,0.25,0.1,0.009999999999999995,0,0.4811755089995131
18,661,Control,0.0,0.1,0.0063095734448019285,0,0.37229754899999534
18,662,Equal,0.1,0.1,0.006309573444801929,0,99
18,663,Control,0.0,0.1,0.00794328234724281,0,99
18,664,Decrease,0.25,0.1,0.012589254117941666,1,0.3649330850003025
18,665,Control,0.0,0.1,0.009999999999999995,0,99
18,666,Decrease,0.25,0.1,0.009999999999999995,0,99
18,667,Decrease,0.25,0.1,0.012589254117941666,1,0.4236053610002273
18,668,Control,0.0,0.1,0.012589254117941666,1,0.37181005099955655
18,669,Equal,0.25,0.25,0.009999999999999995,0,99
18,670,Equal,0.1,0.1,0.007943282347242812,0,99
18,671,Control,0.0,0.25,0.015848931924611127,1,0.40111584899932495
18,672,Control,0.0,0.1,0.009999999999999995,1,0.29225354800109926
18,673,Increase,0.1,0.25,0.015848931924611127,1,0.4678978849988198
18,674,Equal_null,0.25,0.25,0.05011872336272721,1,0.47167988900037017
18,675,Increase,0.1,0.25,0.012589254117941666,0,99
18,676,Control,0.0,0.25,0.012589254117941666,0,99
18,677,Control,0.0,0.1,0.00794328234724281,1,0.3451055069999711
18,678,Decrease,0.25,0.1,0.009999999999999995,1,0.23623372399924847
18,679,Equal,0.1,0.1,0.009999999999999997,1,0.2313273889994889
18,680,Equal,0.25,0.25,0.012589254117941666,0,0.4843931479990715
18,681,Increase,0.1,0.25,0.015848931924611127,1,0.28939214999991236
18,682,Increase,0.1,0.25,0.012589254117941666,1,0.24209134400007315
18,683,Decrease,0.25,0.1,0.00794328234724281,1,0.4214080500005366
18,684,Control,0.0,0.1,0.0063095734448019285,0,99
18,685,Control,0.0,0.1,0.00794328234724281,0,0.617698891001055
18,686,Decrease,0.25,0.1,0.0063095734448019285,0,99
18,687,Control,0.0,0.1,0.009999999999999995,1,0.3331514959991182
18,688,Increase,0.1,0.25,0.009999999999999995,1,0.38426022100065893
18,689,Increase,0.1,0.25,0.00794328234724281,0,99
18,690,Equal,0.25,0.25,0.015848931924611127,1,0.319643619000999
18,691,Equal,0.1,0.1,0.007943282347242812,1,0.42698537899923394
18,692,Control,0.0,0.1,0.00794328234724281,0,99
18,693,Increase_null,0.1,0.25,0.0630957344480193,1,0.8199190699997416
18,694,Control,0.0,0.25,0.015848931924611127,1,0.2476869029997033
18,695,Equal,0.1,0.1,0.006309573444801929,0,0.36826085500069894
18,696,Control,0.0,0.25,0.012589254117941666,0,99
18,697,Equal,0.25,0.25,0.012589254117941666,1,0.3732431690004887
18,698,Equal,0.1,0.1,0.007943282347242812,1,0.3602119790011784
18,699,Equal,0.25,0.25,0.009999999999999995,0,0.5520666070005973
18,700,Equal,0.25,0.25,0.012589254117941666,0,0.29966708100073447
18,701,Increase,0.1,0.25,0.009999999999999995,0,0.25470585800030676
18,702,Increase,0.1,0.25,0.012589254117941666,0,0.42567544099983934
18,703,Control,0.0,0.1,0.009999999999999995,0,0.540909733999797
18,704,Control,0.0,0.25,0.015848931924611127,0,99
18,705,Equal,0.1,0.1,0.006309573444801929,0,99
18,706,Equal,0.1,0.1,0.007943282347242812,0,99
18,707,Control,0.0,0.25,0.01995262314968879,0,0.2361419749995548
18,708,Increase,0.1,0.25,0.015848931924611127,0,99
18,709,Control,0.0,0.1,0.012589254117941666,0,99
18,710,Increase,0.1,0.25,0.01995262314968879,1,0.5054417159990408
18,711,Control,0.0,0.25,0.025118864315095794,1,0.9406531650001853
18,712,Decrease,0.25,0.1,0.00794328234724281,0,99
18,713,Increase,0.1,0.25,0.015848931924611127,1,0.23301184699994337
18,714,Control,0.0,0.1,0.015848931924611127,0,99
18,715,Equal,0.25,0.25,0.015848931924611127,0,99
18,716,Equal_null,0.25,0.25,0.03981071705534971,1,0.6817292760006239
18,717,Equal,0.25,0.25,0.01995262314968879,0,99
18,718,Control_null,0.0,0.1,0.009999999999999995,0,99
18,719,Control,0.0,0.1,0.01995262314968879,1,0.4685649190014374
18,720,Equal,0.1,0.1,0.009999999999999997,0,0.6751273579993722
18,721,Control,0.0,0.1,0.015848931924611127,1,0.45452633099921513
18,722,Increase,0.1,0.25,0.012589254117941666,0,0.39309387899993453
18,723,Equal,0.1,0.1,0.012589254117941668,1,0.48440195100010897
18,724,Control,0.0,0.1,0.012589254117941666,0,0.3374790779998875
18,725,Equal,0.25,0.25,0.025118864315095794,1,0.300610880000022
18,726,Control,0.0,0.25,0.01995262314968879,1,0.38186421200043696
18,727,Equal,0.1,0.1,0.009999999999999997,0,0.34608173400010855
18,728,Equal,0.1,0.1,0.012589254117941668,1,0.2294354409987136
18,729,Equal,0.1,0.1,0.009999999999999997,1,0.40507999999863387
18,730,Decrease,0.25,0.1,0.009999999999999995,0,0.41681810000045516
18,731,Equal,0.1,0.1,0.007943282347242812,1,0.2737890079988574
18,732,Decrease,0.25,0.1,0.012589254117941666,0,0.365738941998643
18,733,Decrease,0.25,0.1,0.015848931924611127,1,0.0326638919996185
18,734,Equal,0.1,0.1,0.006309573444801929,0,0.3160567329996411
18,735,Equal_null,0.1,0.1,0.05011872336272721,1,0.27134557099998347
18,736,Equal,0.1,0.1,0.007943282347242812,1,0.23561954599972523
18,737,Equal,0.25,0.25,0.01995262314968879,0,0.3506649209994066
18,738,Equal,0.1,0.1,0.006309573444801929,0,0.31657576599900494
18,739,Equal,0.25,0.25,0.025118864315095794,1,0.26885351599958085
18,740,Equal,0.1,0.1,0.007943282347242812,1,0.3201861169982294
18,741,Control,0.0,0.1,0.015848931924611127,1,0.5314525929989031
18,742,Increase,0.1,0.25,0.015848931924611127,1,0.22093241099901206
18,743,Increase,0.1,0.25,0.012589254117941666,0,0.5038275499991869
18,744,Equal,0.25,0.25,0.01995262314968879,1,0.2808608010000171
18,745,Decrease,0.25,0.1,0.012589254117941666,0,0.4521385050011304
18,746,Equal,0.1,0.1,0.006309573444801929,0,0.4167105469987291
18,747,Decrease,0.25,0.1,0.015848931924611127,1,0.2596105360007641
18,748,Equal,0.25,0.25,0.015848931924611127,1,0.25492019999910553
18,749,Equal,0.25,0.25,0.012589254117941666,0,0.42476590300066164
18,750,Equal,0.1,0.1,0.007943282347242812,1,0.7004333170007158
18,751,Equal,0.1,0.1,0.006309573444801929,1,0.3035657509990415
18,752,Increase,0.1,0.25,0.015848931924611127,1,0.2246218410000438
18,753,Equal,0.25,0.25,0.015848931924611127,1,0.2995477029999165
18,754,Control_null,0.0,0.1,0.012589254117941666,0,0.5241863920000469
18,755,Increase,0.1,0.25,0.012589254117941666,1,0.22406264199889847
18,756,Equal,0.1,0.1,0.00501187233627272,1,0.33953705499880016
18,757,Increase,0.1,0.25,0.009999999999999995,1,0.3242189930006134
18,758,Decrease,0.25,0.1,0.012589254117941666,1,0.39167170799919404
18,759,Control,0.0,0.1,0.012589254117941666,0,0.4349065749993315
18,760,Increase,0.1,0.25,0.00794328234724281,0,0.4871597670007759
18,761,Equal,0.25,0.25,0.012589254117941666,0,0.49801676199967915
18,762,Equal,0.1,0.1,0.00398107170553497,1,0.46261924899954465
18,763,Control,0.0,0.1,0.015848931924611127,1,0.28851745300016773
18,764,Equal,0.1,0.1,0.0031622776601683772,0,0.4518463820004399
18,765,Decrease,0.25,0.1,0.009999999999999995,1,0.36402211300082854
18,766,Equal,0.1,0.1,0.00398107170553497,0,0.5273381679999147
18,767,Control,0.0,0.1,0.012589254117941666,1,0.4324866030001431
18,768,Equal_null,0.1,0.1,0.03981071705534971,1,0.45833280199985893
18,769,Equal,0.25,0.25,0.015848931924611127,1,0.23751068300043698
18,770,Control,0.0,0.1,0.009999999999999995,0,0.4081009269993956
18,771,Increase_null,0.1,0.25,0.050118723362727206,1,0.5473737789998268
18,772,Decrease,0.25,0.1,0.00794328234724281,0,0.518423232000714
18,773,Increase,0.1,0.25,0.009999999999999995,1,0.5465474350003205
18,774,Increase,0.1,0.25,0.00794328234724281,0,99
18,775,Increase,0.1,0.25,0.009999999999999995,1,0.3616254009994009
18,776,Equal,0.25,0.25,0.012589254117941666,0,0.3401474120000785
18,777,Control,0.0,0.1,0.012589254117941666,0,0.44020792199989955
18,778,Increase,0.1,0.25,0.00794328234724281,0,0.2965472960004263
18,779,Equal,0.1,0.1,0.00501187233627272,0,0.39378626300094766
18,780,Control_null,0.0,0.25,0.05011872336272722,1,0.3788862080000399
18,781,Equal,0.1,0.1,0.006309573444801929,1,0.41409172999919974
18,782,Decrease,0.25,0.1,0.009999999999999995,0,0.7052854819994536
18,783,Decrease,0.25,0.1,0.012589254117941666,1,0.3076138999986142
18,784,Control,0.0,0.1,0.015848931924611127,1,0.3032791539990285
18,785,Equal,0.25,0.25,0.015848931924611127,1,0.29734751999967557
18,786,Equal,0.25,0.25,0.012589254117941666,0,0.5660599089987954
18,787,Equal_null,0.1,0.1,0.031622776601683784,1,0.5714628309997352
18,788,Equal,0.25,0.25,0.015848931924611127,1,0.2721915189995343
18,789,Equal,0.1,0.1,0.00501187233627272,0,0.4167628119994333
18,790,Equal,0.1,0.1,0.006309573444801929,1,0.4039885130005132
18,791,Control,0.0,0.1,0.012589254117941666,1,0.49174207499891054
18,792,Equal,0.1,0.1,0.00501187233627272,0,0.5041461900000286
18,793,Control,0.0,0.1,0.009999999999999995,0,0.2880425240000477
18,794,Control,0.0,0.1,0.012589254117941666,0,0.3474427069995727
18,795,Control,0.0,0.1,0.015848931924611127,0,99
18,796,Increase,0.1,0.25,0.009999999999999995,0,0.5139021089999005
18,797,Equal,0.1,0.1,0.006309573444801929,0,99
18,798,Control,0.0,0.1,0.01995262314968879,0,99
18,799,Increase,0.1,0.25,0.012589254117941666,0,0.4265848109989747
18,800,Control,0.0,0.1,0.025118864315095794,1,0.2961199660003331
18,801,Equal,0.1,0.1,0.007943282347242812,1,0.46126862299934146
18,802,Increase,0.1,0.25,0.015848931924611127,1,0.32595484900048177
18,803,Control,0.0,0.1,0.01995262314968879,1,0.3130908710008953
18,804,Control,0.0,0.1,0.015848931924611127,1,0.21726168900022458
18,805,Increase,0.1,0.25,0.012589254117941666,0,0.39668623600118735
18,806,Control,0.0,0.1,0.012589254117941666,1,0.4777464759990835
18,807,Equal,0.25,0.25,0.012589254117941666,1,0.3369620229987049
18,808,Equal,0.25,0.25,0.009999999999999995,1,0.3802034679993085
18,809,Equal,0.25,0.25,0.00794328234724281,0,0.4384379710008943
18,810,Increase,0.1,0.25,0.015848931924611127,1,0.41062829499969666
18,811,Equal_null,0.1,0.1,0.02511886431509579,1,0.6375601079998887
18,812,Control,0.0,0.1,0.009999999999999995,0,0.896786286999486
18,813,Equal,0.1,0.1,0.006309573444801929,0,0.7911442040003749
18,814,Increase,0.1,0.25,0.012589254117941666,1,0.2982575389996782
18,815,Control,0.0,0.1,0.012589254117941666,0,0.41953633499906573
18,816,Equal_null,0.1,0.1,0.01995262314968879,1,0.39060517200050526
18,817,Increase,0.1,0.25,0.009999999999999995,0,0.3188964170003601
18,818,Control,0.0,0.1,0.015848931924611127,1,0.44898111099973903
18,819,Equal,0.1,0.1,0.007943282347242812,0,99
18,820,Control,0.0,0.1,0.012589254117941666,0,0.5651314719998481
18,821,Increase,0.1,0.25,0.012589254117941666,1,0.3925944070015248
18,822,Increase,0.1,0.25,0.009999999999999995,1,0.41975609499968414
18,823,Increase,0.1,0.25,0.00794328234724281,0,0.3350015779997193
18,824,Increase,0.1,0.25,0.009999999999999995,0,0.3620696489997499
18,825,Increase,0.1,0.25,0.012589254117941666,0,0.3089291129999765
18,826,Control_null,0.0,0.1,0.015848931924611127,1,0.4348155099996802
18,827,Increase_null,0.1,0.25,0.039810717055349706,1,0.29509669700019003
18,828,Increase_null,0.1,0.25,0.03162277660168378,1,0.256615475000217
18,829,Control_null,0.0,0.1,0.012589254117941666,0,99
18,830,Increase_null,0.1,0.25,0.025118864315095787,1,0.2278490589997091
18,831,Control_null,0.0,0.25,0.03981071705534971,0,99
18,832,Increase_null,0.1,0.25,0.019952623149688785,0,99
18,833,Control_null,0.0,0.25,0.05011872336272721,1,0.32392890800110763
18,834,Control_null,0.0,0.25,0.03981071705534971,1,0.09485219000089273
18,835,Control_null,0.0,0.25,0.031622776601683784,1,0.18608384900107922
18,836,Control_null,0.0,0.25,0.02511886431509579,1,0.4114501240001118
18,837,Control_null,0.0,0.25,0.01995262314968879,1,0.4065269750008156
18,838,Control_null,0.0,0.25,0.015848931924611127,1,0.2905358610005351
18,839,Control_null,0.0,0.25,0.012589254117941666,1,0.42260095099845785
