Participant_Number,Trial_Number,Condition,FC_distal,FC_proximal,Target_Contrast,Correct_Response,Reaction_Time
14,0,Control,0.0,0.1,0.1,1,0.5383666310008266
14,1,Equal,0.25,0.25,0.1,1,0.4932330039991939
14,2,Decrease_null,0.25,0.1,0.1,0,0.8099971789997653
14,3,Equal,0.25,0.25,0.07943282347242815,1,0.516830275000757
14,4,Increase,0.1,0.25,0.1,1,0.5749210459998721
14,5,Equal,0.1,0.1,0.1,1,0.4501914860011311
14,6,Control,0.0,0.1,0.07943282347242815,1,0.45021171100052015
14,7,Equal,0.25,0.25,0.06309573444801932,1,0.4930865240003186
14,8,Control,0.0,0.1,0.06309573444801932,1,0.49642074199982744
14,9,Increase,0.1,0.25,0.07943282347242815,1,0.4109723869987647
14,10,Control,0.0,0.25,0.1,1,0.4380549509987759
14,11,Increase,0.1,0.25,0.06309573444801932,1,0.49588334299915005
14,12,Equal,0.1,0.1,0.07943282347242815,1,0.5326847200012708
14,13,Equal,0.1,0.1,0.06309573444801932,1,0.5036023819993716
14,14,Decrease,0.25,0.1,0.1,1,0.475804107998556
14,15,Equal,0.1,0.1,0.05011872336272722,1,0.4220340789997863
14,16,Equal,0.25,0.25,0.05011872336272722,1,0.4744297830002324
14,17,Equal,0.25,0.25,0.03981071705534971,1,1.1964167960013583
14,18,Equal,0.1,0.1,0.03981071705534971,1,0.3675635979998333
14,19,Equal,0.1,0.1,0.031622776601683784,1,0.40782455099906656
14,20,Control,0.0,0.1,0.05011872336272722,0,99
14,21,Equal,0.1,0.1,0.02511886431509579,1,0.3750460610008304
14,22,Control,0.0,0.1,0.06309573444801932,1,0.4480442000003677
14,23,Equal,0.1,0.1,0.01995262314968879,1,0.5245394470002793
14,24,Control,0.0,0.1,0.05011872336272722,1,0.5914194719989609
14,25,Equal,0.1,0.1,0.015848931924611127,0,0.4587132729993755
14,26,Increase,0.1,0.25,0.05011872336272722,1,0.4299973980014329
14,27,Control,0.0,0.1,0.03981071705534971,1,0.5462750200003939
14,28,Decrease,0.25,0.1,0.07943282347242815,1,0.5897444069996709
14,29,Equal,0.1,0.1,0.01995262314968879,0,0.4963978599989787
14,30,Decrease,0.25,0.1,0.06309573444801932,1,0.5137770760011335
14,31,Decrease,0.25,0.1,0.05011872336272722,1,0.6289095760002965
14,32,Control,0.0,0.1,0.031622776601683784,1,0.6610495209988585
14,33,Decrease,0.25,0.1,0.03981071705534971,1,0.5604153599997517
14,34,Control,0.0,0.25,0.07943282347242815,1,0.5061708689991065
14,35,Increase,0.1,0.25,0.03981071705534971,1,0.48572374700052023
14,36,Equal_null,0.25,0.25,0.1,1,0.46481074599978456
14,37,Decrease,0.25,0.1,0.031622776601683784,1,0.4766821630000777
14,38,Equal,0.25,0.25,0.031622776601683784,1,0.7281879130005109
14,39,Control,0.0,0.1,0.02511886431509579,1,0.7241685950011743
14,40,Equal,0.25,0.25,0.02511886431509579,1,0.5283141489999252
14,41,Control,0.0,0.1,0.01995262314968879,1,0.5388347190000786
14,42,Equal,0.25,0.25,0.01995262314968879,1,0.6620974950001255
14,43,Control_null,0.0,0.1,0.1,1,0.5021034680012235
14,44,Control,0.0,0.1,0.015848931924611127,0,0.6501123190009821
14,45,Equal,0.25,0.25,0.015848931924611127,1,0.7865030240009219
14,46,Control,0.0,0.25,0.06309573444801932,1,0.8615950540006452
14,47,Decrease_null,0.25,0.1,0.1,1,0.40781727300054627
14,48,Increase,0.1,0.25,0.031622776601683784,1,0.47466069199981575
14,49,Decrease,0.25,0.1,0.02511886431509579,0,0.6382571260000987
14,50,Decrease,0.25,0.1,0.031622776601683784,1,0.7301543810008297
14,51,Increase,0.1,0.25,0.02511886431509579,1,0.5498455029992328
14,52,Decrease,0.25,0.1,0.02511886431509579,1,0.3538537170006748
14,53,Control,0.0,0.1,0.01995262314968879,1,0.583156616999986
14,54,Equal,0.25,0.25,0.012589254117941666,0,0.38408324500051094
14,55,Control,0.0,0.1,0.015848931924611127,1,0.5792893180005194
14,56,Control,0.0,0.1,0.012589254117941666,0,0.7646093259991176
14,57,Equal,0.25,0.25,0.015848931924611127,0,0.49596869299966784
14,58,Equal,0.25,0.25,0.01995262314968879,1,0.5679219180001382
14,59,Control,0.0,0.25,0.05011872336272722,1,0.5391735459998017
14,60,Equal,0.25,0.25,0.015848931924611127,0,0.4295333259997278
14,61,Control,0.0,0.1,0.015848931924611127,1,0.5763332149999769
14,62,Decrease,0.25,0.1,0.01995262314968879,0,0.22769840300134092
14,63,Increase,0.1,0.25,0.01995262314968879,0,0.4549451040002168
14,64,Equal,0.25,0.25,0.01995262314968879,0,0.3780744910000067
14,65,Increase,0.1,0.25,0.025118864315095794,1,0.599801516998923
14,66,Equal,0.1,0.1,0.025118864315095794,1,0.507387731999188
14,67,Control,0.0,0.25,0.03981071705534971,1,0.500347700999555
14,68,Control,0.0,0.1,0.012589254117941666,0,0.5836751400001958
14,69,Control,0.0,0.25,0.031622776601683784,1,0.5209113649998471
14,70,Equal,0.25,0.25,0.025118864315095794,1,0.5082240570009162
14,71,Increase_null,0.1,0.25,0.1,1,0.45240170400029456
14,72,Decrease,0.25,0.1,0.025118864315095794,1,0.6874396660005004
14,73,Increase_null,0.1,0.25,0.07943282347242815,1,0.4427979989995947
14,74,Equal,0.1,0.1,0.01995262314968879,1,0.49377333099982934
14,75,Equal,0.25,0.25,0.01995262314968879,1,0.5370070580011088
14,76,Control_null,0.0,0.25,0.1,1,0.4050418079987139
14,77,Equal,0.25,0.25,0.015848931924611127,1,0.6324903949989675
14,78,Control,0.0,0.1,0.015848931924611127,0,0.7330565819993353
14,79,Equal,0.1,0.1,0.015848931924611127,0,0.6259612930007279
14,80,Equal_null,0.1,0.1,0.1,1,0.5058365799995954
14,81,Equal,0.1,0.1,0.01995262314968879,0,0.42203442599929986
14,82,Decrease,0.25,0.1,0.01995262314968879,0,0.4303504379986407
14,83,Increase,0.1,0.25,0.01995262314968879,0,0.41763606399945274
14,84,Decrease,0.25,0.1,0.025118864315095794,0,0.3136870789985551
14,85,Equal_null,0.25,0.25,0.07943282347242815,1,0.4779206929997599
14,86,Control,0.0,0.25,0.02511886431509579,1,0.5521349390000978
14,87,Increase,0.1,0.25,0.025118864315095794,1,0.5709612999999081
14,88,Equal,0.1,0.1,0.025118864315095794,1,0.5984461409989308
14,89,Equal,0.25,0.25,0.012589254117941666,0,0.5532915530002356
14,90,Equal,0.25,0.25,0.015848931924611127,0,0.26857123999980104
14,91,Control,0.0,0.1,0.01995262314968879,0,0.8340677120013424
14,92,Equal,0.25,0.25,0.01995262314968879,0,0.526787933000378
14,93,Control,0.0,0.25,0.01995262314968879,1,0.5035920480004279
14,94,Increase,0.1,0.25,0.01995262314968879,0,0.5223529140002938
14,95,Control,0.0,0.25,0.015848931924611127,0,0.5148912109998491
14,96,Control,0.0,0.1,0.025118864315095794,1,0.6776976660003129
14,97,Equal,0.25,0.25,0.025118864315095794,1,0.5183110860016313
14,98,Control,0.0,0.1,0.01995262314968879,1,0.6583010850008577
14,99,Control_null,0.0,0.1,0.07943282347242815,1,0.42148385400105326
14,100,Control,0.0,0.1,0.015848931924611127,0,0.6166999799988844
14,101,Control,0.0,0.25,0.01995262314968879,0,0.5239594640006544
14,102,Control,0.0,0.25,0.025118864315095794,1,0.48709200999837776
14,103,Increase_null,0.1,0.25,0.06309573444801932,1,0.3943684080004459
14,104,Control,0.0,0.25,0.01995262314968879,1,0.6627727379982389
14,105,Decrease,0.25,0.1,0.031622776601683784,0,99
14,106,Equal,0.25,0.25,0.01995262314968879,0,0.5646781109990116
14,107,Control,0.0,0.1,0.01995262314968879,0,0.48013528199953726
14,108,Equal,0.25,0.25,0.025118864315095794,0,0.4172295780008426
14,109,Equal,0.25,0.25,0.031622776601683784,1,0.3883990320009616
14,110,Equal,0.25,0.25,0.02511886431509579,0,0.7080424760006281
14,111,Control,0.0,0.25,0.015848931924611127,0,0.591677743001128
14,112,Equal,0.25,0.25,0.031622776601683784,0,1.2990770029991836
14,113,Equal,0.25,0.25,0.03981071705534971,1,0.53384033400107
14,114,Decrease,0.25,0.1,0.03981071705534971,0,0.44139710099989315
14,115,Equal,0.25,0.25,0.031622776601683784,1,0.5406363670008432
14,116,Decrease,0.25,0.1,0.05011872336272721,1,0.25557052600015595
14,117,Increase,0.1,0.25,0.025118864315095794,0,0.5889903910010617
14,118,Control,0.0,0.25,0.01995262314968879,1,0.6735407609994581
14,119,Decrease,0.25,0.1,0.03981071705534971,0,1.2023815720003768
14,120,Decrease,0.25,0.1,0.05011872336272721,1,0.5089627879988257
14,121,Increase,0.1,0.25,0.031622776601683784,1,0.5387834670000302
14,122,Control,0.0,0.1,0.025118864315095794,1,0.5025457699994149
14,123,Control,0.0,0.25,0.015848931924611127,1,0.40672660199925303
14,124,Equal,0.25,0.25,0.02511886431509579,1,0.4738081779996719
14,125,Equal,0.25,0.25,0.01995262314968879,1,0.5311359649986116
14,126,Equal,0.1,0.1,0.01995262314968879,1,0.5502700699998968
14,127,Equal,0.25,0.25,0.015848931924611127,1,0.623498445000223
14,128,Increase,0.1,0.25,0.02511886431509579,1,0.5944807079995371
14,129,Equal,0.25,0.25,0.012589254117941666,0,0.49350030399909883
14,130,Increase,0.1,0.25,0.01995262314968879,0,0.4087491179998324
14,131,Decrease,0.25,0.1,0.03981071705534971,1,0.4043655609984853
14,132,Increase_null,0.1,0.25,0.05011872336272722,1,0.4724740820001898
14,133,Increase,0.1,0.25,0.025118864315095794,1,0.4193127039998217
14,134,Decrease,0.25,0.1,0.031622776601683784,0,0.39988233400072204
14,135,Equal,0.25,0.25,0.015848931924611127,1,0.6612189419993229
14,136,Decrease,0.25,0.1,0.03981071705534971,0,1.005011220000597
14,137,Decrease,0.25,0.1,0.05011872336272721,1,0.7200756840011309
14,138,Equal,0.1,0.1,0.015848931924611127,1,0.7135314900006051
14,139,Control,0.0,0.25,0.012589254117941666,0,0.5008139759993355
14,140,Decrease_null,0.25,0.1,0.07943282347242815,0,0.3979104649988585
14,141,Increase,0.1,0.25,0.01995262314968879,1,0.7216705430000729
14,142,Control,0.0,0.1,0.01995262314968879,0,0.7639960810010962
14,143,Control,0.0,0.1,0.025118864315095794,1,0.5445155680008611
14,144,Control,0.0,0.25,0.015848931924611127,1,0.6037396649990114
14,145,Decrease,0.25,0.1,0.03981071705534971,1,0.4229921469996043
14,146,Control,0.0,0.25,0.012589254117941666,0,0.4489543269992282
14,147,Control,0.0,0.1,0.01995262314968879,0,0.6714504539995687
14,148,Equal,0.1,0.1,0.012589254117941666,0,0.4837349869994796
14,149,Increase,0.1,0.25,0.015848931924611127,0,0.4435093029987911
14,150,Control,0.0,0.25,0.015848931924611127,0,0.5036663850005425
14,151,Control,0.0,0.1,0.025118864315095794,1,0.5601559330007149
14,152,Decrease,0.25,0.1,0.031622776601683784,1,0.5871683530003793
14,153,Equal,0.25,0.25,0.012589254117941666,0,0.508167591999154
14,154,Decrease,0.25,0.1,0.02511886431509579,1,0.5603680949989212
14,155,Decrease,0.25,0.1,0.01995262314968879,1,0.6035303720000229
14,156,Equal_null,0.1,0.1,0.07943282347242815,0,0.6069129790012084
14,157,Equal,0.25,0.25,0.015848931924611127,1,0.5709640200002468
14,158,Decrease_null,0.25,0.1,0.1,1,0.47808715000064694
14,159,Control,0.0,0.1,0.01995262314968879,0,0.37739459999829705
14,160,Increase,0.1,0.25,0.01995262314968879,0,0.6231814999991911
14,161,Control,0.0,0.25,0.01995262314968879,0,0.6031968200004485
14,162,Equal,0.25,0.25,0.012589254117941666,0,0.5466997009989427
14,163,Equal_null,0.25,0.25,0.06309573444801932,1,0.44615689300007944
14,164,Equal,0.25,0.25,0.015848931924611127,1,0.5513263559987536
14,165,Control,0.0,0.1,0.025118864315095794,1,0.5304458309983602
14,166,Equal,0.25,0.25,0.012589254117941666,0,0.6834357959996851
14,167,Control,0.0,0.1,0.01995262314968879,1,0.6389730110004166
14,168,Decrease_null,0.25,0.1,0.07943282347242815,0,99
14,169,Decrease,0.25,0.1,0.015848931924611127,0,99
14,170,Equal,0.25,0.25,0.015848931924611127,0,0.5534054480012855
14,171,Decrease,0.25,0.1,0.01995262314968879,1,0.6051614369989693
14,172,Equal,0.25,0.25,0.01995262314968879,0,0.6387194779999845
14,173,Decrease,0.25,0.1,0.015848931924611127,0,0.38707965799949307
14,174,Decrease,0.25,0.1,0.01995262314968879,0,0.48726295699998445
14,175,Equal,0.25,0.25,0.025118864315095794,1,0.391264345998934
14,176,Decrease,0.25,0.1,0.025118864315095794,1,0.6983780699993076
14,177,Equal,0.25,0.25,0.01995262314968879,0,0.5147011720000592
14,178,Control,0.0,0.25,0.025118864315095794,0,0.2709075689999736
14,179,Decrease,0.25,0.1,0.01995262314968879,1,1.0400468099996942
14,180,Control,0.0,0.1,0.015848931924611127,0,0.3949280340002588
14,181,Equal,0.1,0.1,0.015848931924611127,0,0.2064093259996298
14,182,Control,0.0,0.25,0.031622776601683784,1,0.4497438210000837
14,183,Increase,0.1,0.25,0.025118864315095794,1,1.1178052900013427
14,184,Equal,0.1,0.1,0.01995262314968879,0,99
14,185,Decrease,0.25,0.1,0.015848931924611127,0,0.7881159900007333
14,186,Equal,0.1,0.1,0.025118864315095794,0,0.7835433889995329
14,187,Control,0.0,0.1,0.01995262314968879,1,0.6196238709999307
14,188,Equal,0.25,0.25,0.025118864315095794,0,99
14,189,Control_null,0.0,0.25,0.07943282347242815,1,0.6082128250000096
14,190,Equal,0.25,0.25,0.031622776601683784,1,0.7918765840004198
14,191,Control,0.0,0.25,0.02511886431509579,1,0.4433747200000653
14,192,Equal_null,0.25,0.25,0.05011872336272722,1,0.6053391860004922
14,193,Decrease,0.25,0.1,0.01995262314968879,1,1.120445707001636
14,194,Control,0.0,0.1,0.015848931924611127,1,0.9967699680000806
14,195,Equal,0.25,0.25,0.02511886431509579,0,0.5920551660001365
14,196,Equal,0.25,0.25,0.031622776601683784,1,0.43646192099913605
14,197,Equal,0.25,0.25,0.02511886431509579,1,0.7139428449991101
14,198,Equal,0.1,0.1,0.031622776601683784,1,0.5626933889998327
14,199,Equal,0.25,0.25,0.01995262314968879,0,0.765813113999684
14,200,Decrease_null,0.25,0.1,0.1,1,1.042258113000571
14,201,Decrease,0.25,0.1,0.015848931924611127,0,0.6021011610009737
14,202,Decrease_null,0.25,0.1,0.07943282347242815,1,0.42929160199855687
14,203,Equal,0.25,0.25,0.025118864315095794,1,0.4375584979989071
14,204,Control,0.0,0.1,0.012589254117941666,0,0.6496341740003118
14,205,Equal,0.25,0.25,0.01995262314968879,0,0.6517190039994603
14,206,Control,0.0,0.25,0.01995262314968879,1,0.39930998100135184
14,207,Increase,0.1,0.25,0.01995262314968879,0,0.5543488759994943
14,208,Increase,0.1,0.25,0.025118864315095794,1,0.3813412929994229
14,209,Control,0.0,0.25,0.015848931924611127,0,0.7471743249989231
14,210,Increase,0.1,0.25,0.01995262314968879,1,0.6469083599986334
14,211,Decrease,0.25,0.1,0.01995262314968879,1,0.5291833280007268
14,212,Control,0.0,0.1,0.015848931924611127,1,1.004441183000381
14,213,Control,0.0,0.25,0.01995262314968879,0,0.5756134450002719
14,214,Equal,0.25,0.25,0.025118864315095794,1,1.0392846169997938
14,215,Decrease,0.25,0.1,0.015848931924611127,0,0.8348664559998724
14,216,Equal,0.1,0.1,0.02511886431509579,0,99
14,217,Control,0.0,0.1,0.012589254117941666,0,0.815256853999017
14,218,Control,0.0,0.25,0.025118864315095794,1,0.7383505719990353
14,219,Equal,0.1,0.1,0.031622776601683784,1,0.6537085720010509
14,220,Increase,0.1,0.25,0.015848931924611127,0,0.5607656459997088
14,221,Decrease,0.25,0.1,0.01995262314968879,1,0.532200511001065
14,222,Equal,0.1,0.1,0.02511886431509579,0,0.5777621250017546
14,223,Control_null,0.0,0.1,0.06309573444801932,1,0.893640977999894
14,224,Control_null,0.0,0.1,0.05011872336272722,1,0.5035128010003973
14,225,Control,0.0,0.1,0.015848931924611127,1,0.5708656799997698
14,226,Increase,0.1,0.25,0.01995262314968879,0,0.5387080250002327
14,227,Increase,0.1,0.25,0.025118864315095794,1,0.5421723730014492
14,228,Decrease,0.25,0.1,0.015848931924611127,1,0.5701062940006523
14,229,Control_null,0.0,0.25,0.06309573444801932,1,0.4504711959998531
14,230,Equal,0.1,0.1,0.031622776601683784,1,0.48563341600129206
14,231,Decrease,0.25,0.1,0.012589254117941666,0,0.5047798619998503
14,232,Equal,0.1,0.1,0.02511886431509579,1,0.40401553599986073
14,233,Equal,0.1,0.1,0.01995262314968879,1,0.8389647469994088
14,234,Increase,0.1,0.25,0.01995262314968879,0,1.0425449009999284
14,235,Control,0.0,0.1,0.012589254117941666,0,0.8947867240003688
14,236,Equal,0.1,0.1,0.015848931924611127,1,1.0198768640002527
14,237,Equal,0.1,0.1,0.012589254117941666,0,0.925850026000262
14,238,Increase,0.1,0.25,0.025118864315095794,0,0.913108884000394
14,239,Increase,0.1,0.25,0.031622776601683784,1,0.48023023799942166
14,240,Control,0.0,0.1,0.015848931924611127,0,0.876795291000235
14,241,Increase,0.1,0.25,0.02511886431509579,1,0.45589934200143034
14,242,Equal,0.25,0.25,0.01995262314968879,0,0.49110309799834795
14,243,Decrease,0.25,0.1,0.015848931924611127,1,0.5021348209993448
14,244,Decrease,0.25,0.1,0.012589254117941666,0,0.5236882320004952
14,245,Equal,0.25,0.25,0.025118864315095794,1,0.7118628850003006
14,246,Increase,0.1,0.25,0.01995262314968879,0,0.5366982689993165
14,247,Control,0.0,0.25,0.01995262314968879,0,0.5009772339999472
14,248,Control,0.0,0.1,0.01995262314968879,0,0.4082281980008702
14,249,Decrease,0.25,0.1,0.015848931924611127,1,0.4720335089987202
14,250,Increase_null,0.1,0.25,0.03981071705534971,1,0.38769097900149063
14,251,Decrease,0.25,0.1,0.012589254117941666,0,0.5086531659999309
14,252,Equal,0.1,0.1,0.015848931924611127,1,0.7676103109988617
14,253,Control_null,0.0,0.1,0.03981071705534971,1,0.44287771899871586
14,254,Increase,0.1,0.25,0.025118864315095794,1,0.4701406660005887
14,255,Increase,0.1,0.25,0.01995262314968879,0,0.5454308989992569
14,256,Control,0.0,0.1,0.025118864315095794,1,0.6934846530002687
14,257,Equal,0.1,0.1,0.012589254117941666,1,0.8023547800003143
14,258,Equal,0.1,0.1,0.009999999999999995,1,0.4946158889997605
14,259,Equal,0.25,0.25,0.01995262314968879,1,0.5509822229996644
14,260,Control,0.0,0.25,0.025118864315095794,1,0.5713732650001475
14,261,Decrease,0.25,0.1,0.015848931924611127,0,0.4706531579995499
14,262,Decrease,0.25,0.1,0.01995262314968879,1,0.8227812119985174
14,263,Control,0.0,0.25,0.01995262314968879,0,0.46599984699969355
14,264,Increase,0.1,0.25,0.025118864315095794,1,0.4349850359994889
14,265,Increase,0.1,0.25,0.01995262314968879,1,0.9660234060011135
14,266,Equal_null,0.1,0.1,0.1,1,0.4175520190001407
14,267,Decrease,0.25,0.1,0.015848931924611127,0,99
14,268,Equal,0.1,0.1,0.00794328234724281,0,0.4409031200011668
14,269,Control,0.0,0.1,0.01995262314968879,1,0.6599825850007619
14,270,Increase,0.1,0.25,0.015848931924611127,0,0.4171621950008557
14,271,Equal,0.1,0.1,0.009999999999999995,0,0.6837641160000203
14,272,Decrease,0.25,0.1,0.01995262314968879,1,0.9265291420015274
14,273,Control,0.0,0.25,0.025118864315095794,1,0.5374976740004058
14,274,Increase,0.1,0.25,0.01995262314968879,0,0.3410298769995279
14,275,Equal,0.1,0.1,0.012589254117941666,1,0.4451952399995207
14,276,Equal,0.25,0.25,0.015848931924611127,1,0.4319823229998292
14,277,Decrease,0.25,0.1,0.015848931924611127,0,0.6174834249995911
14,278,Decrease,0.25,0.1,0.01995262314968879,1,0.501743542999975
14,279,Decrease,0.25,0.1,0.015848931924611127,1,0.5610985250004887
14,280,Equal,0.25,0.25,0.012589254117941666,0,0.37237902599918016
14,281,Control,0.0,0.25,0.01995262314968879,0,0.8231634619987744
14,282,Decrease,0.25,0.1,0.012589254117941666,0,99
14,283,Decrease,0.25,0.1,0.015848931924611127,0,0.5513389380012086
14,284,Control,0.0,0.25,0.025118864315095794,1,0.747456785000395
14,285,Control,0.0,0.25,0.01995262314968879,0,99
14,286,Control,0.0,0.25,0.025118864315095794,1,0.7739207620015804
14,287,Control,0.0,0.25,0.01995262314968879,0,0.5214931739992608
14,288,Equal_null,0.25,0.25,0.03981071705534971,1,0.6586648199991032
14,289,Decrease,0.25,0.1,0.01995262314968879,0,0.8618817850001506
14,290,Increase,0.1,0.25,0.025118864315095794,0,0.5829308009997476
14,291,Increase_null,0.1,0.25,0.031622776601683784,1,0.5060680679998768
14,292,Increase,0.1,0.25,0.031622776601683784,0,0.6783123410004919
14,293,Equal,0.1,0.1,0.009999999999999995,0,0.5534794699997292
14,294,Equal,0.1,0.1,0.012589254117941666,0,0.4768368710010691
14,295,Control,0.0,0.25,0.025118864315095794,1,0.5920209690011689
14,296,Control_null,0.0,0.25,0.05011872336272722,1,0.5966293109995604
14,297,Equal,0.25,0.25,0.015848931924611127,0,0.8231796950003627
14,298,Increase,0.1,0.25,0.03981071705534971,1,0.4804871660016943
14,299,Equal,0.1,0.1,0.015848931924611127,1,0.6024709129997063
14,300,Equal,0.1,0.1,0.012589254117941666,0,0.4037406160005048
14,301,Equal,0.1,0.1,0.015848931924611127,0,0.31897492700045404
14,302,Decrease,0.25,0.1,0.025118864315095794,1,1.0422426810000616
14,303,Control,0.0,0.25,0.01995262314968879,0,0.6753710930006491
14,304,Decrease,0.25,0.1,0.01995262314968879,1,0.543756356000813
14,305,Decrease,0.25,0.1,0.015848931924611127,1,0.4428237039992382
14,306,Increase,0.1,0.25,0.031622776601683784,1,0.5255532840001251
14,307,Equal,0.25,0.25,0.01995262314968879,0,0.5542719889999717
14,308,Increase,0.1,0.25,0.02511886431509579,1,0.5583664759997191
14,309,Increase_null,0.1,0.25,0.02511886431509579,1,0.3446087410011387
14,310,Decrease,0.25,0.1,0.012589254117941666,0,0.4594731930010312
14,311,Control,0.0,0.1,0.015848931924611127,1,0.5252056750014162
14,312,Control,0.0,0.25,0.025118864315095794,1,0.40001584099991305
14,313,Control,0.0,0.1,0.012589254117941666,0,0.5119540969990339
14,314,Equal,0.25,0.25,0.025118864315095794,1,0.5312696009987121
14,315,Equal,0.25,0.25,0.01995262314968879,0,0.5186313140002312
14,316,Control,0.0,0.25,0.01995262314968879,0,0.7370631819994742
14,317,Equal,0.25,0.25,0.025118864315095794,1,0.8360115880004741
14,318,Control,0.0,0.1,0.015848931924611127,0,0.4873602480001864
14,319,Control,0.0,0.1,0.01995262314968879,1,0.42643229799978144
14,320,Control,0.0,0.25,0.025118864315095794,1,0.7200201800005743
14,321,Control,0.0,0.25,0.01995262314968879,0,0.6824155219983368
14,322,Control,0.0,0.25,0.025118864315095794,1,0.8681686270010687
14,323,Decrease,0.25,0.1,0.015848931924611127,1,0.6804400219989475
14,324,Increase,0.1,0.25,0.01995262314968879,1,0.5923212779998721
14,325,Equal,0.1,0.1,0.01995262314968879,1,0.5552872719999868
14,326,Decrease,0.25,0.1,0.012589254117941666,0,0.3727875660006248
14,327,Equal,0.25,0.25,0.01995262314968879,0,0.5834238910010754
14,328,Decrease,0.25,0.1,0.015848931924611127,0,0.5071479670004919
14,329,Control_null,0.0,0.1,0.031622776601683784,1,0.4210486720003246
14,330,Control,0.0,0.25,0.01995262314968879,0,0.7283175480006321
14,331,Equal,0.25,0.25,0.025118864315095794,1,0.6916276860010839
14,332,Control,0.0,0.1,0.015848931924611127,0,0.5827261319991521
14,333,Control,0.0,0.25,0.025118864315095794,0,0.5805271680001169
14,334,Control_null,0.0,0.25,0.03981071705534971,1,0.7132545559998107
14,335,Decrease,0.25,0.1,0.01995262314968879,1,0.6890083910002431
14,336,Equal,0.1,0.1,0.015848931924611127,0,99
14,337,Equal,0.1,0.1,0.01995262314968879,1,0.5738928820010187
14,338,Increase,0.1,0.25,0.015848931924611127,0,0.5529447290009557
14,339,Equal,0.25,0.25,0.01995262314968879,0,0.47296968800037575
14,340,Decrease,0.25,0.1,0.015848931924611127,1,0.628461979000349
14,341,Increase,0.1,0.25,0.01995262314968879,0,0.3595273980008642
14,342,Control,0.0,0.25,0.031622776601683784,1,0.6748622730010538
14,343,Control,0.0,0.25,0.02511886431509579,1,0.7018511349997425
14,344,Control,0.0,0.1,0.01995262314968879,0,0.4890987059989129
14,345,Increase,0.1,0.25,0.025118864315095794,1,0.9243415519995324
14,346,Control,0.0,0.1,0.025118864315095794,1,0.6748511639998469
14,347,Decrease,0.25,0.1,0.012589254117941666,0,0.5734473760003311
14,348,Equal,0.1,0.1,0.015848931924611127,1,0.7997968569998193
14,349,Increase_null,0.1,0.25,0.01995262314968879,1,0.8991840100006812
14,350,Control_null,0.0,0.1,0.02511886431509579,1,0.40317143499851227
14,351,Decrease,0.25,0.1,0.015848931924611127,0,99
14,352,Equal,0.1,0.1,0.012589254117941666,0,0.4546455010004138
14,353,Equal,0.1,0.1,0.015848931924611127,1,1.0665896640002757
14,354,Increase,0.1,0.25,0.01995262314968879,0,0.7019535210001777
14,355,Increase,0.1,0.25,0.025118864315095794,0,0.3053163290005614
14,356,Equal,0.1,0.1,0.012589254117941666,0,0.7324618830007239
14,357,Equal,0.1,0.1,0.015848931924611127,1,0.6462304390006466
14,358,Control,0.0,0.25,0.01995262314968879,1,0.6495983849999902
14,359,Decrease,0.25,0.1,0.01995262314968879,1,0.5897191019994352
14,360,Increase,0.1,0.25,0.031622776601683784,1,0.45357989799958887
14,361,Equal,0.1,0.1,0.012589254117941666,0,0.30507304500133614
14,362,Equal,0.25,0.25,0.025118864315095794,1,0.45235902899912617
14,363,Control,0.0,0.1,0.01995262314968879,0,0.6720976639990113
14,364,Control_null,0.0,0.1,0.01995262314968879,1,0.7235834279999835
14,365,Decrease,0.25,0.1,0.015848931924611127,1,0.6546444290015643
14,366,Equal_null,0.25,0.25,0.031622776601683784,1,0.45809700500103645
14,367,Control,0.0,0.1,0.025118864315095794,1,0.45483695400071156
14,368,Increase,0.1,0.25,0.02511886431509579,1,0.5153549000006024
14,369,Increase,0.1,0.25,0.01995262314968879,0,0.49955512800079305
14,370,Control,0.0,0.25,0.015848931924611127,0,0.6878650529997685
14,371,Increase,0.1,0.25,0.025118864315095794,1,0.7920987400011654
14,372,Control,0.0,0.25,0.01995262314968879,0,0.4591502439998294
14,373,Control,0.0,0.1,0.01995262314968879,0,0.8362792480002099
14,374,Control,0.0,0.25,0.025118864315095794,0,0.6793331069984561
14,375,Control,0.0,0.1,0.025118864315095794,0,99
14,376,Control,0.0,0.1,0.031622776601683784,0,99
14,377,Increase,0.1,0.25,0.01995262314968879,0,0.6171589909990871
14,378,Control,0.0,0.1,0.03981071705534971,1,0.620278213000347
14,379,Control,0.0,0.1,0.031622776601683784,1,0.40826868600015587
14,380,Control,0.0,0.1,0.02511886431509579,1,0.5488542090006376
14,381,Increase,0.1,0.25,0.025118864315095794,1,0.9453200220013969
14,382,Control,0.0,0.25,0.031622776601683784,1,0.9140815379996639
14,383,Control,0.0,0.1,0.01995262314968879,1,0.4363354680008342
14,384,Control,0.0,0.25,0.02511886431509579,1,0.5250901319996046
14,385,Equal,0.25,0.25,0.01995262314968879,1,0.5123172500007058
14,386,Increase,0.1,0.25,0.01995262314968879,0,0.8738166460007051
14,387,Equal,0.25,0.25,0.015848931924611127,0,0.508886960999007
14,388,Control_null,0.0,0.1,0.015848931924611127,1,0.45705010700112325
14,389,Control,0.0,0.25,0.01995262314968879,0,0.49237671899936686
14,390,Control,0.0,0.1,0.015848931924611127,1,0.6874933970011625
14,391,Control,0.0,0.25,0.025118864315095794,0,0.8506645900015428
14,392,Control,0.0,0.25,0.031622776601683784,1,1.0699464379995334
14,393,Equal,0.1,0.1,0.015848931924611127,0,0.9221948079994036
14,394,Equal,0.25,0.25,0.01995262314968879,0,0.910060500000327
14,395,Control_null,0.0,0.1,0.012589254117941666,1,0.5905544530014595
14,396,Control,0.0,0.25,0.02511886431509579,1,0.9385552879994066
14,397,Equal,0.25,0.25,0.025118864315095794,1,0.39459245999933046
14,398,Control,0.0,0.25,0.01995262314968879,0,0.4698213450010371
14,399,Increase,0.1,0.25,0.025118864315095794,1,0.4868660550000641
14,400,Equal,0.25,0.25,0.01995262314968879,0,0.6101870210004563
14,401,Control,0.0,0.25,0.025118864315095794,1,0.6055668610006251
14,402,Equal_null,0.1,0.1,0.07943282347242815,1,0.4657055900006526
14,403,Control,0.0,0.25,0.01995262314968879,0,99
14,404,Increase,0.1,0.25,0.01995262314968879,0,99
14,405,Equal,0.1,0.1,0.01995262314968879,1,0.5793766919996415
14,406,Control,0.0,0.1,0.012589254117941666,1,0.8320474190004461
14,407,Equal,0.1,0.1,0.015848931924611127,1,0.746939126000143
14,408,Control,0.0,0.1,0.009999999999999995,0,0.6906537320010102
14,409,Decrease,0.25,0.1,0.012589254117941666,1,0.8302320469992992
14,410,Increase,0.1,0.25,0.025118864315095794,1,0.5099401040006342
14,411,Increase,0.1,0.25,0.01995262314968879,0,0.7451589819993387
14,412,Increase,0.1,0.25,0.025118864315095794,1,1.211744999000075
14,413,Equal,0.1,0.1,0.012589254117941666,0,0.8225764360013272
14,414,Increase,0.1,0.25,0.01995262314968879,0,0.6661019240000314
14,415,Equal,0.1,0.1,0.015848931924611127,0,0.6450403540002299
14,416,Control,0.0,0.1,0.012589254117941666,0,0.5200542160000623
14,417,Control,0.0,0.25,0.025118864315095794,1,0.9633188799998607
14,418,Increase,0.1,0.25,0.025118864315095794,1,0.5597083979992021
14,419,Control,0.0,0.25,0.01995262314968879,0,0.5538640699996904
14,420,Control,0.0,0.1,0.015848931924611127,1,0.5728173020015674
14,421,Control,0.0,0.25,0.025118864315095794,1,0.5971961119994376
14,422,Control_null,0.0,0.1,0.009999999999999995,1,0.4644285819995275
14,423,Equal,0.1,0.1,0.01995262314968879,0,1.113867473000937
14,424,Increase,0.1,0.25,0.01995262314968879,0,0.7571183050004038
14,425,Control,0.0,0.25,0.01995262314968879,1,0.591048991000207
14,426,Control,0.0,0.1,0.012589254117941666,0,0.6183743809997395
14,427,Equal,0.25,0.25,0.025118864315095794,1,0.5813754329992662
14,428,Control,0.0,0.1,0.015848931924611127,0,0.5761993579999398
14,429,Equal,0.1,0.1,0.025118864315095794,1,0.6835460559996136
14,430,Increase_null,0.1,0.25,0.015848931924611127,1,0.40673903999959293
14,431,Decrease,0.25,0.1,0.009999999999999995,0,0.8362670099995739
14,432,Increase,0.1,0.25,0.025118864315095794,1,1.1186654940011067
14,433,Increase,0.1,0.25,0.01995262314968879,1,1.0014490230005322
14,434,Control,0.0,0.1,0.01995262314968879,1,0.9457612070000323
14,435,Equal,0.25,0.25,0.01995262314968879,0,0.4127729489991907
14,436,Control,0.0,0.1,0.015848931924611127,1,0.7581990990001941
14,437,Decrease,0.25,0.1,0.012589254117941666,0,1.0013323120001587
14,438,Equal,0.1,0.1,0.01995262314968879,0,99
14,439,Decrease,0.25,0.1,0.015848931924611127,0,0.6307186409994756
14,440,Equal_null,0.1,0.1,0.06309573444801932,1,0.7377899300008721
14,441,Control,0.0,0.25,0.015848931924611127,0,0.9087042089995521
14,442,Equal,0.25,0.25,0.025118864315095794,1,0.5921810829986498
14,443,Control,0.0,0.1,0.012589254117941666,0,0.4525425230003748
14,444,Increase,0.1,0.25,0.015848931924611127,0,99
14,445,Decrease,0.25,0.1,0.01995262314968879,1,0.7707143659990834
14,446,Decrease,0.25,0.1,0.015848931924611127,0,99
14,447,Equal,0.1,0.1,0.025118864315095794,0,99
14,448,Control_null,0.0,0.1,0.00794328234724281,1,0.47337623800012807
14,449,Decrease,0.25,0.1,0.01995262314968879,0,0.7385145419993933
14,450,Control,0.0,0.25,0.01995262314968879,0,0.773744155998429
14,451,Control,0.0,0.25,0.025118864315095794,1,0.6480065109990392
14,452,Control_null,0.0,0.1,0.0063095734448019285,1,0.459061556000961
14,453,Increase,0.1,0.25,0.01995262314968879,0,0.5182428609987255
14,454,Control,0.0,0.1,0.015848931924611127,0,0.4175786269988748
14,455,Control,0.0,0.1,0.01995262314968879,0,0.8048200800003542
14,456,Control,0.0,0.1,0.025118864315095794,1,0.6185474920002889
14,457,Decrease,0.25,0.1,0.025118864315095794,1,0.6944509180011664
14,458,Equal_null,0.1,0.1,0.05011872336272722,1,0.40725993600062793
14,459,Equal,0.25,0.25,0.01995262314968879,1,1.074217026000042
14,460,Equal,0.25,0.25,0.015848931924611127,0,99
14,461,Control,0.0,0.1,0.01995262314968879,0,0.501534711000204
14,462,Equal,0.25,0.25,0.01995262314968879,0,0.3509198669999023
14,463,Control,0.0,0.1,0.025118864315095794,0,99
14,464,Decrease_null,0.25,0.1,0.06309573444801932,1,0.36433943700103555
14,465,Equal,0.25,0.25,0.025118864315095794,1,0.5436449869994249
14,466,Equal,0.1,0.1,0.031622776601683784,1,0.7398349569994025
14,467,Equal,0.1,0.1,0.02511886431509579,0,99
14,468,Increase,0.1,0.25,0.025118864315095794,0,99
14,469,Equal,0.25,0.25,0.01995262314968879,0,0.6304852489993209
14,470,Control,0.0,0.25,0.01995262314968879,0,99
14,471,Control,0.0,0.25,0.025118864315095794,0,99
14,472,Equal,0.25,0.25,0.025118864315095794,0,0.6717629730010231
14,473,Decrease,0.25,0.1,0.01995262314968879,1,0.6800692069991783
14,474,Control,0.0,0.1,0.031622776601683784,0,99
14,475,Equal,0.1,0.1,0.031622776601683784,0,99
14,476,Control,0.0,0.1,0.03981071705534971,1,0.9036736620000738
14,477,Increase,0.1,0.25,0.031622776601683784,1,0.8096684770007414
14,478,Increase,0.1,0.25,0.02511886431509579,0,99
14,479,Equal,0.1,0.1,0.03981071705534971,1,0.6483677880005416
14,480,Decrease,0.25,0.1,0.015848931924611127,0,0.667192808999971
14,481,Equal,0.1,0.1,0.031622776601683784,1,0.46735276999970665
14,482,Equal,0.25,0.25,0.031622776601683784,1,0.4386916899984499
14,483,Equal_null,0.1,0.1,0.03981071705534971,1,0.44952012000067043
14,484,Equal,0.1,0.1,0.02511886431509579,1,0.47659119200034183
14,485,Control,0.0,0.25,0.031622776601683784,1,0.44909811500110663
14,486,Decrease,0.25,0.1,0.01995262314968879,0,1.0123927660006302
14,487,Decrease,0.25,0.1,0.025118864315095794,0,0.688427220999074
14,488,Decrease,0.25,0.1,0.031622776601683784,1,0.42896737299997767
14,489,Control,0.0,0.1,0.031622776601683784,1,0.5051882240004488
14,490,Equal,0.25,0.25,0.02511886431509579,1,0.7300728400005028
14,491,Increase,0.1,0.25,0.031622776601683784,1,0.34112951799943403
14,492,Control,0.0,0.25,0.02511886431509579,1,0.6465088900004048
14,493,Equal_null,0.1,0.1,0.031622776601683784,1,0.8016258989991911
14,494,Decrease,0.25,0.1,0.02511886431509579,1,0.6339543710000726
14,495,Control_null,0.0,0.25,0.031622776601683784,1,0.6609460670006229
14,496,Increase,0.1,0.25,0.02511886431509579,1,0.4811436550007784
14,497,Increase,0.1,0.25,0.01995262314968879,0,0.4362837190001301
14,498,Equal,0.1,0.1,0.01995262314968879,0,0.43149375500070164
14,499,Control,0.0,0.1,0.02511886431509579,0,0.5707548589998623
14,500,Control,0.0,0.25,0.01995262314968879,0,0.6633113650004816
14,501,Control,0.0,0.1,0.031622776601683784,1,0.452418722999937
14,502,Decrease,0.25,0.1,0.01995262314968879,1,0.5502661430000444
14,503,Decrease,0.25,0.1,0.015848931924611127,0,0.841389072000311
14,504,Control_null,0.0,0.1,0.005011872336272719,1,0.859559573000297
14,505,Control,0.0,0.25,0.025118864315095794,0,0.6930050549999578
14,506,Increase,0.1,0.25,0.025118864315095794,1,0.7921643629997561
14,507,Control,0.0,0.25,0.031622776601683784,1,0.5281706280002254
14,508,Equal,0.25,0.25,0.01995262314968879,0,0.2995008570014761
14,509,Control,0.0,0.1,0.02511886431509579,1,0.7504159119998803
14,510,Control,0.0,0.25,0.02511886431509579,0,0.42571015000066836
14,511,Increase,0.1,0.25,0.01995262314968879,1,0.4446507759985252
14,512,Equal_null,0.25,0.25,0.02511886431509579,1,0.7372352349993889
14,513,Increase,0.1,0.25,0.015848931924611127,0,0.7967259520009975
14,514,Increase,0.1,0.25,0.01995262314968879,0,0.8418299639997713
14,515,Control,0.0,0.1,0.01995262314968879,1,1.1739506400008395
14,516,Equal_null,0.25,0.25,0.01995262314968879,1,0.2628015240006789
14,517,Increase_null,0.1,0.25,0.012589254117941666,0,99
14,518,Equal_null,0.1,0.1,0.02511886431509579,1,1.1224807159997
14,519,Equal,0.25,0.25,0.025118864315095794,1,0.9346148789991275
14,520,Control,0.0,0.1,0.015848931924611127,1,0.6875547689996893
14,521,Control,0.0,0.25,0.031622776601683784,0,99
14,522,Equal,0.25,0.25,0.01995262314968879,0,0.6141175599987037
14,523,Control,0.0,0.1,0.012589254117941666,0,0.6409789650006132
14,524,Decrease,0.25,0.1,0.01995262314968879,1,0.5803196709985059
14,525,Control,0.0,0.1,0.015848931924611127,0,0.7354833970002801
14,526,Equal,0.25,0.25,0.025118864315095794,0,0.4758635879989015
14,527,Equal,0.1,0.1,0.025118864315095794,1,0.7039579979991686
14,528,Increase,0.1,0.25,0.025118864315095794,1,0.97720955800105
14,529,Control,0.0,0.1,0.01995262314968879,0,0.4044132859999081
14,530,Increase,0.1,0.25,0.01995262314968879,0,0.4316711280007439
14,531,Equal,0.1,0.1,0.01995262314968879,0,99
14,532,Equal,0.25,0.25,0.031622776601683784,1,1.1237544019986672
14,533,Increase,0.1,0.25,0.025118864315095794,1,0.48495472700051323
14,534,Control,0.0,0.25,0.03981071705534971,1,0.6801211090005381
14,535,Increase,0.1,0.25,0.01995262314968879,0,99
14,536,Equal,0.25,0.25,0.02511886431509579,0,0.5036747160011146
14,537,Decrease,0.25,0.1,0.015848931924611127,0,0.6108285950012942
14,538,Equal,0.25,0.25,0.031622776601683784,0,99
14,539,Control,0.0,0.1,0.025118864315095794,1,0.4426983379999001
14,540,Decrease,0.25,0.1,0.01995262314968879,0,0.4453118960009306
14,541,Control,0.0,0.1,0.01995262314968879,0,99
14,542,Decrease,0.25,0.1,0.025118864315095794,0,0.8188527570000588
14,543,Equal,0.1,0.1,0.025118864315095794,0,99
14,544,Control,0.0,0.25,0.031622776601683784,1,0.5505221869989327
14,545,Control,0.0,0.1,0.025118864315095794,1,0.6012855070002843
14,546,Increase,0.1,0.25,0.025118864315095794,1,0.5076031230000808
14,547,Equal,0.1,0.1,0.031622776601683784,1,0.566814059000535
14,548,Increase,0.1,0.25,0.01995262314968879,1,0.6260101690004376
14,549,Control,0.0,0.1,0.01995262314968879,1,0.7729382220004481
14,550,Control,0.0,0.1,0.015848931924611127,0,0.528036884001267
14,551,Decrease,0.25,0.1,0.031622776601683784,1,0.5163993949990981
14,552,Control,0.0,0.25,0.02511886431509579,0,99
14,553,Control,0.0,0.25,0.031622776601683784,1,0.5469935199998872
14,554,Equal,0.25,0.25,0.03981071705534971,1,0.676090679000481
14,555,Equal,0.25,0.25,0.031622776601683784,1,0.4551577519996499
14,556,Increase,0.1,0.25,0.015848931924611127,1,0.6423580700011371
14,557,Control,0.0,0.1,0.01995262314968879,1,0.46651409399964905
14,558,Control,0.0,0.1,0.015848931924611127,0,0.7018531909998273
14,559,Increase,0.1,0.25,0.012589254117941666,0,0.5521135670005606
14,560,Increase,0.1,0.25,0.015848931924611127,1,1.1232646570006182
14,561,Control,0.0,0.25,0.02511886431509579,1,0.4382630239997525
14,562,Control,0.0,0.25,0.01995262314968879,0,0.29758731500078284
14,563,Decrease,0.25,0.1,0.02511886431509579,1,0.9422827979997237
14,564,Equal,0.1,0.1,0.02511886431509579,1,0.6649298849988554
14,565,Decrease,0.25,0.1,0.01995262314968879,0,0.9471580519984855
14,566,Decrease,0.25,0.1,0.025118864315095794,0,99
14,567,Equal,0.1,0.1,0.01995262314968879,1,0.7435667600002489
14,568,Equal,0.25,0.25,0.02511886431509579,0,99
14,569,Equal,0.25,0.25,0.031622776601683784,1,0.4027621730001556
14,570,Equal,0.25,0.25,0.02511886431509579,1,0.5501199440004712
14,571,Decrease,0.25,0.1,0.031622776601683784,1,0.4423521160006203
14,572,Increase_null,0.1,0.25,0.015848931924611127,1,0.7484225270000024
14,573,Equal,0.1,0.1,0.015848931924611127,0,0.6635101250012667
14,574,Equal,0.25,0.25,0.01995262314968879,0,99
14,575,Decrease,0.25,0.1,0.02511886431509579,1,0.9497705130015675
14,576,Decrease,0.25,0.1,0.01995262314968879,1,0.9639350569996168
14,577,Equal,0.25,0.25,0.025118864315095794,1,0.5608052789993963
14,578,Decrease,0.25,0.1,0.015848931924611127,0,99
14,579,Control,0.0,0.1,0.01995262314968879,0,99
14,580,Control,0.0,0.25,0.025118864315095794,1,0.6709264250002889
14,581,Increase,0.1,0.25,0.012589254117941666,0,0.4740199410007335
14,582,Equal,0.25,0.25,0.01995262314968879,0,99
14,583,Increase,0.1,0.25,0.015848931924611127,0,99
14,584,Increase,0.1,0.25,0.01995262314968879,0,0.34437973400054034
14,585,Increase,0.1,0.25,0.025118864315095794,0,0.5467319929994119
14,586,Control,0.0,0.25,0.01995262314968879,1,0.8948825980005495
14,587,Increase,0.1,0.25,0.031622776601683784,1,0.9301223380007286
14,588,Increase,0.1,0.25,0.02511886431509579,1,1.1812254989999929
14,589,Equal,0.25,0.25,0.025118864315095794,1,0.5534987379996892
14,590,Decrease,0.25,0.1,0.01995262314968879,1,0.8790493960004824
14,591,Equal,0.1,0.1,0.01995262314968879,1,0.49570360599864216
14,592,Increase,0.1,0.25,0.01995262314968879,0,99
14,593,Decrease,0.25,0.1,0.015848931924611127,1,0.9645494320011494
14,594,Increase,0.1,0.25,0.025118864315095794,0,0.7926441469990095
14,595,Decrease_null,0.25,0.1,0.05011872336272722,1,0.33669698699850414
14,596,Equal_null,0.25,0.25,0.015848931924611127,1,0.41186561699942104
14,597,Decrease,0.25,0.1,0.012589254117941666,0,99
14,598,Equal,0.25,0.25,0.01995262314968879,0,0.3382686819986702
14,599,Equal,0.1,0.1,0.015848931924611127,0,0.34954389999984414
14,600,Equal_null,0.25,0.25,0.012589254117941666,1,0.4467263730002742
14,601,Equal,0.25,0.25,0.025118864315095794,0,0.6604096350001782
14,602,Equal_null,0.1,0.1,0.01995262314968879,1,0.40058822199898714
14,603,Decrease,0.25,0.1,0.015848931924611127,0,0.38523528299992904
14,604,Equal_null,0.25,0.25,0.009999999999999995,1,0.33236817800025165
14,605,Increase,0.1,0.25,0.031622776601683784,1,0.4043785989997559
14,606,Equal,0.25,0.25,0.031622776601683784,1,0.41566604600120627
14,607,Equal,0.25,0.25,0.02511886431509579,1,0.5633824159995129
14,608,Increase,0.1,0.25,0.02511886431509579,1,0.5151453529997525
14,609,Control,0.0,0.1,0.025118864315095794,0,99
14,610,Control,0.0,0.1,0.031622776601683784,1,0.46565320000081556
14,611,Control,0.0,0.1,0.02511886431509579,0,0.5572360309997748
14,612,Decrease_null,0.25,0.1,0.03981071705534971,1,0.383597362000728
14,613,Decrease,0.25,0.1,0.01995262314968879,0,0.4832877709995955
14,614,Equal,0.25,0.25,0.01995262314968879,0,0.5115245449997019
14,615,Control,0.0,0.25,0.015848931924611127,0,0.4927228010001272
14,616,Equal,0.25,0.25,0.025118864315095794,1,0.829674533000798
14,617,Control,0.0,0.25,0.01995262314968879,0,0.36891328700039594
14,618,Control,0.0,0.25,0.025118864315095794,0,99
14,619,Decrease_null,0.25,0.1,0.031622776601683784,0,0.5081723109997256
14,620,Control,0.0,0.25,0.031622776601683784,0,0.6213168329995824
14,621,Equal,0.25,0.25,0.01995262314968879,0,0.7283446750006988
14,622,Equal_null,0.1,0.1,0.015848931924611127,1,0.4197514939987741
14,623,Control,0.0,0.25,0.03981071705534971,1,0.43901882899990596
14,624,Increase,0.1,0.25,0.01995262314968879,1,0.762270121000256
14,625,Decrease,0.25,0.1,0.025118864315095794,1,0.7026310889996239
14,626,Decrease_null,0.25,0.1,0.03981071705534971,1,0.5692423569998937
14,627,Decrease_null,0.25,0.1,0.031622776601683784,1,1.0621025520013063
14,628,Control,0.0,0.1,0.031622776601683784,1,0.5620597770011955
14,629,Increase,0.1,0.25,0.015848931924611127,1,0.6193007330002729
14,630,Control,0.0,0.1,0.02511886431509579,1,0.5985885849986516
14,631,Equal_null,0.1,0.1,0.012589254117941666,1,0.5354926890013303
14,632,Equal_null,0.25,0.25,0.00794328234724281,1,0.4746402239998133
14,633,Equal_null,0.25,0.25,0.0063095734448019285,1,0.8347066719998111
14,634,Control,0.0,0.25,0.031622776601683784,1,0.495001757000864
14,635,Increase,0.1,0.25,0.012589254117941666,0,0.44196906199977093
14,636,Control,0.0,0.1,0.01995262314968879,1,0.613291367999409
14,637,Equal,0.1,0.1,0.01995262314968879,0,0.872714769000595
14,638,Decrease,0.25,0.1,0.01995262314968879,1,1.2919717710010445
14,639,Increase,0.1,0.25,0.015848931924611127,0,0.5668233309988864
14,640,Increase,0.1,0.25,0.01995262314968879,0,99
14,641,Equal,0.25,0.25,0.025118864315095794,1,1.1608167759986827
14,642,Control_null,0.0,0.25,0.02511886431509579,1,0.8885083530003612
14,643,Control,0.0,0.25,0.02511886431509579,1,0.4679123799996887
14,644,Control,0.0,0.1,0.015848931924611127,0,0.5643043420004688
14,645,Decrease,0.25,0.1,0.015848931924611127,1,0.9520792799994524
14,646,Decrease,0.25,0.1,0.012589254117941666,0,0.4411546930004988
14,647,Increase,0.1,0.25,0.025118864315095794,1,0.6211095640010171
14,648,Equal_null,0.1,0.1,0.009999999999999995,1,0.36762763600017934
14,649,Decrease,0.25,0.1,0.015848931924611127,0,0.6917772859997058
14,650,Control_null,0.0,0.25,0.01995262314968879,0,99
14,651,Control_null,0.0,0.25,0.025118864315095794,1,0.6022124559985969
14,652,Equal_null,0.1,0.1,0.00794328234724281,1,0.5415357579986448
14,653,Increase,0.1,0.25,0.01995262314968879,0,99
14,654,Decrease,0.25,0.1,0.01995262314968879,0,0.6144126229992253
14,655,Control,0.0,0.25,0.01995262314968879,0,0.7577799329992558
14,656,Decrease,0.25,0.1,0.025118864315095794,1,0.4652232129992626
14,657,Equal,0.1,0.1,0.025118864315095794,1,0.4583925899987662
14,658,Control,0.0,0.1,0.01995262314968879,1,0.40454904200123565
14,659,Equal,0.1,0.1,0.01995262314968879,1,0.8697907109999505
14,660,Increase,0.1,0.25,0.025118864315095794,0,0.44901161499910813
14,661,Decrease,0.25,0.1,0.01995262314968879,0,0.3558608910007024
14,662,Control,0.0,0.1,0.015848931924611127,1,0.8554476839999552
14,663,Control,0.0,0.25,0.025118864315095794,1,0.4586259390016494
14,664,Equal,0.25,0.25,0.01995262314968879,0,0.4378482020001684
14,665,Decrease,0.25,0.1,0.025118864315095794,0,0.36185727399970347
14,666,Control,0.0,0.1,0.012589254117941666,0,0.4138420799990854
14,667,Control,0.0,0.25,0.01995262314968879,0,0.4401384689990664
14,668,Control,0.0,0.1,0.015848931924611127,0,0.38454094100052316
14,669,Equal,0.1,0.1,0.015848931924611127,1,0.7477186600008281
14,670,Control,0.0,0.25,0.025118864315095794,1,0.4208215039998322
14,671,Equal,0.1,0.1,0.012589254117941666,0,0.5438867100001517
14,672,Equal,0.25,0.25,0.025118864315095794,1,0.46524244000102044
14,673,Increase_null,0.1,0.25,0.012589254117941666,1,0.4523493619999499
14,674,Control,0.0,0.25,0.01995262314968879,0,1.0155539190000127
14,675,Decrease,0.25,0.1,0.031622776601683784,1,0.6277448490000097
14,676,Increase,0.1,0.25,0.031622776601683784,1,0.9347854759998881
14,677,Equal,0.1,0.1,0.015848931924611127,1,0.658264967998548
14,678,Control,0.0,0.25,0.025118864315095794,1,0.46162367800025095
14,679,Control,0.0,0.1,0.01995262314968879,1,0.7845265390005807
14,680,Decrease,0.25,0.1,0.02511886431509579,0,0.7877158139999665
14,681,Equal,0.25,0.25,0.01995262314968879,0,99
14,682,Equal,0.25,0.25,0.025118864315095794,1,0.5040351740008191
14,683,Decrease,0.25,0.1,0.031622776601683784,1,0.4642697990002489
14,684,Increase_null,0.1,0.25,0.009999999999999995,1,0.283344360999763
14,685,Equal,0.1,0.1,0.012589254117941666,0,0.4055625629989663
14,686,Control,0.0,0.1,0.015848931924611127,0,0.3849438369998097
14,687,Equal,0.25,0.25,0.01995262314968879,0,0.739905180000278
14,688,Equal,0.25,0.25,0.025118864315095794,1,0.45518383600028756
14,689,Control,0.0,0.25,0.01995262314968879,0,0.36236880799879145
14,690,Equal,0.25,0.25,0.01995262314968879,0,0.813641455000834
14,691,Decrease,0.25,0.1,0.02511886431509579,1,1.2658133960012492
14,692,Increase_null,0.1,0.25,0.00794328234724281,1,0.39597223899909295
14,693,Control,0.0,0.25,0.025118864315095794,1,0.639078554999287
14,694,Equal,0.1,0.1,0.015848931924611127,0,0.31251319799957855
14,695,Control,0.0,0.25,0.01995262314968879,0,0.48343681799997285
14,696,Equal,0.25,0.25,0.025118864315095794,0,0.4434330359999876
14,697,Decrease,0.25,0.1,0.01995262314968879,0,0.19069481799851928
14,698,Control,0.0,0.25,0.025118864315095794,1,0.7689735980002297
14,699,Increase,0.1,0.25,0.02511886431509579,1,0.5641676020004525
14,700,Decrease,0.25,0.1,0.025118864315095794,1,0.9514024579984834
14,701,Equal_null,0.25,0.25,0.005011872336272719,1,0.9235549169989099
14,702,Increase,0.1,0.25,0.01995262314968879,0,0.34293965700089757
14,703,Increase,0.1,0.25,0.025118864315095794,1,0.43366668000089703
14,704,Increase,0.1,0.25,0.01995262314968879,0,0.31864980600039416
14,705,Control_null,0.0,0.25,0.01995262314968879,0,99
14,706,Equal,0.25,0.25,0.031622776601683784,0,99
14,707,Control,0.0,0.25,0.01995262314968879,0,99
14,708,Equal,0.25,0.25,0.03981071705534971,1,0.43771966399981466
14,709,Equal,0.1,0.1,0.01995262314968879,1,0.4782754179996118
14,710,Increase,0.1,0.25,0.025118864315095794,1,0.7293121019993123
14,711,Equal,0.1,0.1,0.015848931924611127,1,0.5315643120011373
14,712,Control,0.0,0.25,0.025118864315095794,1,0.42369420300019556
14,713,Decrease,0.25,0.1,0.01995262314968879,0,99
14,714,Decrease_null,0.25,0.1,0.02511886431509579,1,0.35025081599997065
14,715,Increase,0.1,0.25,0.01995262314968879,0,0.37744655499955115
14,716,Control,0.0,0.1,0.01995262314968879,0,1.0134242109998013
14,717,Equal,0.25,0.25,0.031622776601683784,1,0.9876056500015693
14,718,Equal,0.25,0.25,0.02511886431509579,1,0.5168232830001216
14,719,Increase,0.1,0.25,0.025118864315095794,1,0.43874197699915385
14,720,Decrease,0.25,0.1,0.025118864315095794,0,0.6258983419993456
14,721,Increase,0.1,0.25,0.01995262314968879,1,0.8624352770002588
14,722,Equal,0.25,0.25,0.01995262314968879,1,0.5875950049994572
14,723,Control,0.0,0.25,0.01995262314968879,0,0.4718997229992965
14,724,Control_null,0.0,0.25,0.025118864315095794,1,0.23281461500118894
14,725,Equal,0.25,0.25,0.015848931924611127,0,0.5160364269995625
14,726,Control_null,0.0,0.25,0.01995262314968879,1,0.5879630540002836
14,727,Decrease,0.25,0.1,0.031622776601683784,1,0.5112713290000102
14,728,Control,0.0,0.25,0.025118864315095794,1,0.4885227920003672
14,729,Equal,0.25,0.25,0.01995262314968879,1,0.6275818860012805
14,730,Decrease,0.25,0.1,0.02511886431509579,1,0.4628395729996555
14,731,Control_null,0.0,0.25,0.015848931924611127,1,0.8900842339990049
14,732,Decrease,0.25,0.1,0.01995262314968879,0,0.3492816280013358
14,733,Control,0.0,0.25,0.01995262314968879,0,0.4085978080001951
14,734,Equal,0.1,0.1,0.012589254117941666,0,0.5488472709985217
14,735,Equal,0.1,0.1,0.015848931924611127,0,0.7061431239999365
14,736,Decrease,0.25,0.1,0.025118864315095794,1,0.5498491210000793
14,737,Control_null,0.0,0.25,0.012589254117941666,1,0.6072964480008523
14,738,Equal,0.1,0.1,0.01995262314968879,0,0.8343270509994909
14,739,Decrease,0.25,0.1,0.01995262314968879,0,99
14,740,Decrease,0.25,0.1,0.025118864315095794,0,0.5495380809989001
14,741,Equal,0.25,0.25,0.015848931924611127,1,0.8151086799989571
14,742,Equal,0.25,0.25,0.012589254117941666,0,0.6100829770002747
14,743,Increase,0.1,0.25,0.015848931924611127,0,0.3491160129997297
14,744,Control,0.0,0.25,0.025118864315095794,0,99
14,745,Control,0.0,0.25,0.031622776601683784,1,1.163747661999878
14,746,Control,0.0,0.25,0.02511886431509579,1,0.5829181000008248
14,747,Control,0.0,0.25,0.01995262314968879,1,0.7633806440007902
14,748,Equal,0.25,0.25,0.015848931924611127,0,0.6875874090001162
14,749,Increase,0.1,0.25,0.01995262314968879,0,1.1161982829999033
14,750,Equal,0.1,0.1,0.025118864315095794,1,0.5015887879999354
14,751,Control,0.0,0.1,0.025118864315095794,1,0.7288112209989777
14,752,Equal,0.25,0.25,0.01995262314968879,0,0.5050104919992009
14,753,Equal,0.25,0.25,0.025118864315095794,1,0.5400422830007301
14,754,Equal,0.25,0.25,0.01995262314968879,0,99
14,755,Control,0.0,0.1,0.01995262314968879,1,0.7436622129989701
14,756,Decrease,0.25,0.1,0.031622776601683784,0,99
14,757,Control,0.0,0.25,0.015848931924611127,1,0.7263494939998054
14,758,Control,0.0,0.25,0.012589254117941666,0,0.3452221150000696
14,759,Control,0.0,0.1,0.015848931924611127,1,0.5724149170000601
14,760,Equal,0.1,0.1,0.01995262314968879,0,1.0166371739996976
14,761,Equal,0.1,0.1,0.025118864315095794,0,0.7968366790009895
14,762,Control,0.0,0.1,0.012589254117941666,1,1.1382357429993135
14,763,Control,0.0,0.25,0.015848931924611127,1,0.5951525500004209
14,764,Decrease,0.25,0.1,0.03981071705534971,1,0.41416899599971657
14,765,Control,0.0,0.1,0.009999999999999995,0,0.5745273680004175
14,766,Decrease,0.25,0.1,0.031622776601683784,1,0.4736405929998
14,767,Equal,0.1,0.1,0.031622776601683784,1,0.33079600900055084
14,768,Equal,0.1,0.1,0.02511886431509579,1,0.38174603800143814
14,769,Control,0.0,0.25,0.012589254117941666,0,0.5691915369989147
14,770,Equal,0.1,0.1,0.01995262314968879,1,0.98034184899916
14,771,Control,0.0,0.1,0.012589254117941666,0,0.728489132001414
14,772,Increase,0.1,0.25,0.025118864315095794,0,99
14,773,Equal,0.1,0.1,0.015848931924611127,1,0.6156677519993536
14,774,Control,0.0,0.1,0.015848931924611127,1,1.0844633790002263
14,775,Control,0.0,0.25,0.015848931924611127,0,99
14,776,Control,0.0,0.1,0.012589254117941666,0,1.1933678280001914
14,777,Control,0.0,0.25,0.01995262314968879,0,0.40437001600002986
14,778,Control,0.0,0.25,0.025118864315095794,0,99
14,779,Increase,0.1,0.25,0.031622776601683784,1,0.9920876710002631
14,780,Increase,0.1,0.25,0.02511886431509579,1,0.897049743000025
14,781,Control,0.0,0.1,0.015848931924611127,0,0.38043353600005503
14,782,Control,0.0,0.1,0.01995262314968879,0,0.6636436440003308
14,783,Control,0.0,0.25,0.031622776601683784,1,1.0029192100009823
14,784,Increase,0.1,0.25,0.01995262314968879,1,0.774048324999967
14,785,Equal,0.1,0.1,0.012589254117941666,0,0.44891580100011197
14,786,Control,0.0,0.1,0.025118864315095794,0,0.8615507610011264
14,787,Increase,0.1,0.25,0.015848931924611127,0,1.0168002449991036
14,788,Equal,0.1,0.1,0.015848931924611127,0,0.7580133670016949
14,789,Equal,0.1,0.1,0.01995262314968879,0,0.6938448849996348
14,790,Control,0.0,0.25,0.02511886431509579,1,0.4970917280006688
14,791,Control,0.0,0.1,0.031622776601683784,1,0.34634656800153607
14,792,Equal,0.1,0.1,0.025118864315095794,1,0.5814123740001378
14,793,Increase,0.1,0.25,0.01995262314968879,1,0.5347290350000549
14,794,Increase,0.1,0.25,0.015848931924611127,0,0.40169538899863255
14,795,Control,0.0,0.25,0.01995262314968879,0,0.43701517800036527
14,796,Increase,0.1,0.25,0.01995262314968879,1,0.68793567099965
14,797,Control,0.0,0.1,0.02511886431509579,1,0.5566741960010404
14,798,Equal,0.1,0.1,0.01995262314968879,0,99
14,799,Control,0.0,0.25,0.025118864315095794,1,0.5241746100000455
14,800,Equal,0.1,0.1,0.025118864315095794,0,99
14,801,Increase,0.1,0.25,0.015848931924611127,0,1.116448249998939
14,802,Increase,0.1,0.25,0.01995262314968879,1,0.5393028420003247
14,803,Equal,0.1,0.1,0.031622776601683784,1,0.5356045740008994
14,804,Control,0.0,0.25,0.01995262314968879,1,0.5116272539999045
14,805,Control,0.0,0.1,0.01995262314968879,1,0.7386047780000808
14,806,Control,0.0,0.1,0.015848931924611127,0,0.5730716489997576
14,807,Control,0.0,0.25,0.015848931924611127,1,0.5524764759993559
14,808,Equal,0.1,0.1,0.02511886431509579,0,99
14,809,Equal,0.1,0.1,0.031622776601683784,1,0.4134595209998224
14,810,Equal,0.1,0.1,0.02511886431509579,1,0.6328785959995002
14,811,Equal,0.1,0.1,0.01995262314968879,0,0.45202649800012296
14,812,Control,0.0,0.25,0.012589254117941666,0,0.5354130609994172
14,813,Control,0.0,0.25,0.015848931924611127,0,0.4056740689993603
14,814,Control,0.0,0.25,0.01995262314968879,0,0.7094219179998618
14,815,Equal,0.1,0.1,0.025118864315095794,1,0.6726611499998398
14,816,Equal,0.1,0.1,0.01995262314968879,0,99
14,817,Equal,0.1,0.1,0.025118864315095794,1,0.6844056240006466
14,818,Equal,0.1,0.1,0.01995262314968879,0,0.4804509309997229
14,819,Control,0.0,0.1,0.01995262314968879,0,0.6336344899991673
14,820,Control,0.0,0.1,0.025118864315095794,0,99
14,821,Control,0.0,0.1,0.031622776601683784,0,99
14,822,Control,0.0,0.1,0.03981071705534971,1,0.44415467100043315
14,823,Equal,0.1,0.1,0.025118864315095794,1,0.32795399299902783
14,824,Control,0.0,0.1,0.031622776601683784,1,0.4846019599990541
14,825,Equal,0.1,0.1,0.01995262314968879,1,0.4630778630016721
14,826,Equal,0.1,0.1,0.015848931924611127,0,0.3146813290004502
14,827,Equal,0.1,0.1,0.01995262314968879,1,0.48426449699945806
14,828,Equal,0.1,0.1,0.015848931924611127,0,0.5993333959995653
14,829,Equal,0.1,0.1,0.01995262314968879,0,0.5143646140004421
14,830,Equal,0.1,0.1,0.025118864315095794,0,0.9316432619998523
14,831,Equal,0.1,0.1,0.031622776601683784,1,0.4230618569999933
14,832,Equal,0.1,0.1,0.02511886431509579,1,0.39305082699866034
14,833,Equal,0.1,0.1,0.01995262314968879,0,0.8600930059983511
14,834,Equal,0.1,0.1,0.025118864315095794,1,0.48715059500136704
14,835,Equal,0.1,0.1,0.01995262314968879,0,0.5624784930005262
14,836,Equal,0.1,0.1,0.025118864315095794,0,0.7200503350013605
14,837,Equal,0.1,0.1,0.031622776601683784,1,1.1469323959991016
14,838,Equal,0.1,0.1,0.02511886431509579,1,0.4028819300001487
14,839,Equal,0.1,0.1,0.01995262314968879,0,0.20620240300013393
