Participant_Number,Trial_Number,Condition,FC_distal,FC_proximal,Target_Contrast,Correct_Response,Reaction_Time
9,0,Decrease,0.25,0.1,0.1,1,0.4137935290000314
9,1,Control,0.0,0.25,0.1,1,0.36116628699983266
9,2,Decrease_null,0.25,0.1,0.1,0,0.4123515410001346
9,3,Decrease,0.25,0.1,0.07943282347242815,1,0.44759255100007067
9,4,Equal_null,0.1,0.1,0.1,0,0.5326363899998796
9,5,Increase,0.1,0.25,0.1,1,0.4096671819997937
9,6,Control,0.0,0.1,0.1,1,0.25006488400003946
9,7,Control,0.0,0.1,0.07943282347242815,1,0.3654949110000416
9,8,Equal,0.1,0.1,0.1,1,0.3655499799997415
9,9,Decrease,0.25,0.1,0.06309573444801932,1,0.32841895399997156
9,10,Control,0.0,0.1,0.06309573444801932,1,0.3298084119996929
9,11,Control,0.0,0.1,0.05011872336272722,1,0.3887219480002386
9,12,Control_null,0.0,0.25,0.1,1,0.4961593210000501
9,13,Increase,0.1,0.25,0.07943282347242815,1,0.4594663029993171
9,14,Increase,0.1,0.25,0.06309573444801932,1,0.48661348600035126
9,15,Control,0.0,0.25,0.07943282347242815,1,0.40165576500021416
9,16,Increase_null,0.1,0.25,0.1,1,0.6300149389999206
9,17,Equal,0.25,0.25,0.1,1,0.4173414140004752
9,18,Control_null,0.0,0.25,0.07943282347242815,1,0.35064142500050366
9,19,Control,0.0,0.1,0.03981071705534971,1,0.3824529319999783
9,20,Equal,0.25,0.25,0.07943282347242815,1,0.5308488230002695
9,21,Control,0.0,0.1,0.031622776601683784,1,0.5468270270002904
9,22,Equal,0.1,0.1,0.07943282347242815,1,0.42981324800075527
9,23,Increase,0.1,0.25,0.05011872336272722,1,0.3742607329995735
9,24,Equal,0.25,0.25,0.06309573444801932,1,0.4344035470003291
9,25,Control,0.0,0.1,0.02511886431509579,1,0.4376651140000831
9,26,Control_null,0.0,0.25,0.06309573444801932,0,0.6967492840003615
9,27,Increase,0.1,0.25,0.03981071705534971,1,0.31598195700007636
9,28,Equal,0.1,0.1,0.06309573444801932,1,0.3511040769999454
9,29,Decrease,0.25,0.1,0.05011872336272722,1,0.44234663899987936
9,30,Equal,0.25,0.25,0.05011872336272722,1,0.46302871300031256
9,31,Control,0.0,0.1,0.01995262314968879,0,0.4672535199997583
9,32,Control,0.0,0.25,0.06309573444801932,1,0.3961001509997004
9,33,Decrease,0.25,0.1,0.03981071705534971,1,0.2469390870001007
9,34,Control,0.0,0.1,0.025118864315095794,0,0.2883077710002908
9,35,Equal,0.25,0.25,0.03981071705534971,1,0.2594290009992619
9,36,Control,0.0,0.1,0.031622776601683784,1,0.2917065970004842
9,37,Control,0.0,0.1,0.02511886431509579,1,0.27970607099996414
9,38,Control,0.0,0.1,0.01995262314968879,1,0.4025569479999831
9,39,Equal,0.25,0.25,0.031622776601683784,1,0.39810338899951603
9,40,Equal,0.1,0.1,0.05011872336272722,1,0.48137764199964295
9,41,Control,0.0,0.1,0.015848931924611127,1,0.38065736800035666
9,42,Increase,0.1,0.25,0.031622776601683784,1,0.3596609220003302
9,43,Decrease,0.25,0.1,0.031622776601683784,1,0.42846884099981253
9,44,Increase,0.1,0.25,0.02511886431509579,1,0.3217451720001918
9,45,Equal,0.25,0.25,0.02511886431509579,1,0.26542110399986996
9,46,Equal,0.25,0.25,0.01995262314968879,1,0.42155455099964456
9,47,Equal,0.25,0.25,0.015848931924611127,1,0.37361575799968705
9,48,Increase,0.1,0.25,0.01995262314968879,1,0.5445586509995337
9,49,Decrease,0.25,0.1,0.02511886431509579,1,0.49819688699972176
9,50,Control,0.0,0.25,0.05011872336272722,1,0.44546974999957456
9,51,Equal,0.25,0.25,0.012589254117941666,0,0.328354723999837
9,52,Equal,0.1,0.1,0.03981071705534971,1,0.3886256140003752
9,53,Equal,0.25,0.25,0.015848931924611127,1,0.43099291199996514
9,54,Decrease,0.25,0.1,0.01995262314968879,0,0.5058674239999164
9,55,Decrease,0.25,0.1,0.025118864315095794,1,0.3729184740004712
9,56,Equal,0.1,0.1,0.031622776601683784,1,0.32197228299992275
9,57,Equal,0.1,0.1,0.02511886431509579,1,0.3508817989995805
9,58,Decrease,0.25,0.1,0.01995262314968879,1,0.5585175290007101
9,59,Equal,0.1,0.1,0.01995262314968879,1,0.4417536110004221
9,60,Equal,0.25,0.25,0.012589254117941666,0,0.45915099600006215
9,61,Increase,0.1,0.25,0.015848931924611127,1,0.3423116989997652
9,62,Control,0.0,0.25,0.03981071705534971,1,0.31150918300045305
9,63,Equal,0.1,0.1,0.015848931924611127,0,0.5865423889999875
9,64,Control,0.0,0.1,0.012589254117941666,0,0.4857712059992991
9,65,Decrease,0.25,0.1,0.015848931924611127,0,0.46475886500047636
9,66,Control,0.0,0.25,0.031622776601683784,1,0.4532889199999772
9,67,Equal,0.25,0.25,0.015848931924611127,0,0.36838775700016413
9,68,Control,0.0,0.25,0.02511886431509579,0,0.4197073690002071
9,69,Control,0.0,0.25,0.031622776601683784,1,0.3588013939997836
9,70,Control,0.0,0.1,0.015848931924611127,1,0.3889767820000998
9,71,Control,0.0,0.25,0.02511886431509579,1,0.3251681080000708
9,72,Control,0.0,0.25,0.01995262314968879,1,0.4162548349995632
9,73,Equal,0.1,0.1,0.01995262314968879,1,0.5443650859997433
9,74,Control,0.0,0.25,0.015848931924611127,0,0.40369777400064777
9,75,Increase,0.1,0.25,0.012589254117941666,0,0.4526998580004147
9,76,Control,0.0,0.1,0.012589254117941666,0,0.39319015099954413
9,77,Control,0.0,0.1,0.015848931924611127,0,0.40428711799995654
9,78,Equal,0.1,0.1,0.015848931924611127,0,0.4073514070005331
9,79,Decrease,0.25,0.1,0.01995262314968879,0,0.5295072540002366
9,80,Control,0.0,0.25,0.01995262314968879,0,0.4928077550002854
9,81,Increase,0.1,0.25,0.015848931924611127,0,0.4248745169998074
9,82,Increase,0.1,0.25,0.01995262314968879,1,0.43604735000008077
9,83,Equal,0.1,0.1,0.01995262314968879,0,0.38441406300080416
9,84,Control_null,0.0,0.25,0.07943282347242814,1,0.36839778200010187
9,85,Control,0.0,0.1,0.01995262314968879,0,0.3796630560000267
9,86,Decrease,0.25,0.1,0.025118864315095794,0,0.40424809800060757
9,87,Equal_null,0.1,0.1,0.1,1,0.36714434099940263
9,88,Control,0.0,0.1,0.025118864315095794,0,0.41724573700048495
9,89,Equal,0.25,0.25,0.01995262314968879,0,0.41211057100008475
9,90,Control,0.0,0.1,0.031622776601683784,0,0.3915712549996897
9,91,Control_null,0.0,0.1,0.1,1,0.41184457700001076
9,92,Control_null,0.0,0.25,0.06309573444801932,1,0.44706828000016685
9,93,Equal,0.25,0.25,0.025118864315095794,0,0.3940467060001538
9,94,Control,0.0,0.25,0.025118864315095794,0,0.4296684920000189
9,95,Control,0.0,0.25,0.031622776601683784,1,0.419390136000402
9,96,Increase,0.1,0.25,0.015848931924611127,0,0.40541096099968854
9,97,Equal_null,0.1,0.1,0.07943282347242815,1,0.4060072840002249
9,98,Control,0.0,0.1,0.03981071705534971,1,0.21702695099975244
9,99,Control,0.0,0.1,0.031622776601683784,1,0.37836774600054923
9,100,Control,0.0,0.25,0.02511886431509579,1,0.3494306709999364
9,101,Control,0.0,0.25,0.01995262314968879,1,0.51974051399975
9,102,Equal,0.1,0.1,0.025118864315095794,1,0.43480326300050365
9,103,Control,0.0,0.25,0.015848931924611127,1,0.5660276509997857
9,104,Control,0.0,0.25,0.012589254117941666,0,0.560893415999999
9,105,Equal_null,0.25,0.25,0.1,1,0.5094081900006131
9,106,Control,0.0,0.1,0.02511886431509579,1,0.4815874159994564
9,107,Equal,0.25,0.25,0.031622776601683784,1,0.4679087479998998
9,108,Control,0.0,0.25,0.015848931924611127,0,0.5360709180004051
9,109,Decrease,0.25,0.1,0.031622776601683784,1,0.49909391599976516
9,110,Equal,0.25,0.25,0.02511886431509579,1,0.5403815969993957
9,111,Equal,0.1,0.1,0.01995262314968879,0,0.5595181790004062
9,112,Control,0.0,0.25,0.01995262314968879,0,0.47163078900030087
9,113,Increase,0.1,0.25,0.01995262314968879,1,0.5069648670005336
9,114,Control,0.0,0.1,0.01995262314968879,1,0.5888827439994202
9,115,Equal,0.1,0.1,0.025118864315095794,1,0.38427788199987845
9,116,Equal,0.1,0.1,0.01995262314968879,0,0.4754704289998699
9,117,Control,0.0,0.1,0.015848931924611127,1,0.46359921299972484
9,118,Equal_null,0.25,0.25,0.07943282347242815,1,0.5232047359995704
9,119,Control,0.0,0.1,0.012589254117941666,1,0.38404328700016777
9,120,Decrease,0.25,0.1,0.02511886431509579,1,0.508418987999903
9,121,Equal,0.25,0.25,0.01995262314968879,0,0.40747287799968035
9,122,Equal,0.1,0.1,0.025118864315095794,1,0.4828674640002646
9,123,Decrease,0.25,0.1,0.01995262314968879,1,0.48562833799951477
9,124,Control,0.0,0.25,0.025118864315095794,1,0.4582018009996318
9,125,Decrease,0.25,0.1,0.015848931924611127,1,0.46351571200011676
9,126,Control,0.0,0.25,0.01995262314968879,1,0.42445933999988483
9,127,Control,0.0,0.25,0.015848931924611127,1,0.43594409200068185
9,128,Equal,0.25,0.25,0.025118864315095794,1,0.4547252529991965
9,129,Control,0.0,0.1,0.009999999999999995,0,0.5120040659994629
9,130,Increase,0.1,0.25,0.015848931924611127,1,0.4272345839999616
9,131,Control,0.0,0.1,0.012589254117941666,1,0.44326415000068664
9,132,Decrease,0.25,0.1,0.012589254117941666,0,0.38242181100031303
9,133,Increase,0.1,0.25,0.012589254117941666,0,0.3937422249991869
9,134,Control,0.0,0.1,0.009999999999999995,0,0.46096223699987604
9,135,Increase,0.1,0.25,0.015848931924611127,0,0.4811584529998072
9,136,Control_null,0.0,0.1,0.07943282347242815,1,0.4525287059996117
9,137,Increase,0.1,0.25,0.01995262314968879,0,0.5126229659999808
9,138,Equal,0.25,0.25,0.01995262314968879,1,0.46225143799983925
9,139,Control,0.0,0.1,0.012589254117941666,0,0.1680540059996929
9,140,Decrease,0.25,0.1,0.015848931924611127,1,0.37106286299967906
9,141,Equal,0.25,0.25,0.015848931924611127,0,0.41431496099994547
9,142,Increase,0.1,0.25,0.025118864315095794,1,0.4546063280004091
9,143,Equal,0.25,0.25,0.01995262314968879,0,0.4745691660000375
9,144,Control,0.0,0.1,0.015848931924611127,0,0.5789235109996298
9,145,Decrease,0.25,0.1,0.012589254117941666,0,0.46860675100015214
9,146,Control,0.0,0.1,0.01995262314968879,0,0.4491421749999063
9,147,Equal,0.1,0.1,0.01995262314968879,1,0.4603400149999288
9,148,Increase,0.1,0.25,0.01995262314968879,1,0.5517223030001333
9,149,Equal,0.25,0.25,0.025118864315095794,1,0.46641978099978587
9,150,Equal,0.25,0.25,0.01995262314968879,0,0.4398414240004058
9,151,Equal,0.1,0.1,0.015848931924611127,0,0.48504915200010146
9,152,Decrease,0.25,0.1,0.015848931924611127,0,0.4383184229991457
9,153,Equal,0.1,0.1,0.01995262314968879,0,0.4572107230005713
9,154,Decrease,0.25,0.1,0.01995262314968879,1,0.4607838970005105
9,155,Increase,0.1,0.25,0.015848931924611127,0,0.5257717960002992
9,156,Decrease,0.25,0.1,0.015848931924611127,0,0.5129410370000187
9,157,Control,0.0,0.25,0.012589254117941666,0,0.60936864300038
9,158,Equal,0.1,0.1,0.025118864315095794,1,0.5963300789999266
9,159,Increase,0.1,0.25,0.01995262314968879,1,0.5114764099998865
9,160,Decrease,0.25,0.1,0.01995262314968879,0,0.683740485999806
9,161,Control,0.0,0.25,0.015848931924611127,1,0.5108821690000696
9,162,Control,0.0,0.25,0.012589254117941666,0,0.5381933259996003
9,163,Equal,0.1,0.1,0.01995262314968879,0,0.5989375039998777
9,164,Equal,0.25,0.25,0.025118864315095794,1,0.48320352799964894
9,165,Decrease,0.25,0.1,0.025118864315095794,1,0.39678361599999334
9,166,Equal,0.25,0.25,0.01995262314968879,0,0.7358417589994133
9,167,Decrease,0.25,0.1,0.01995262314968879,1,0.4669446899997638
9,168,Equal,0.1,0.1,0.025118864315095794,1,0.39516018999984226
9,169,Control,0.0,0.25,0.015848931924611127,1,0.4473581970005398
9,170,Control,0.0,0.25,0.012589254117941666,1,0.47981949799941503
9,171,Control,0.0,0.1,0.025118864315095794,1,0.33869725600015954
9,172,Equal_null,0.1,0.1,0.06309573444801932,1,0.3349232740001753
9,173,Equal,0.1,0.1,0.01995262314968879,0,0.5541370479995749
9,174,Decrease,0.25,0.1,0.015848931924611127,0,0.509547002000545
9,175,Equal,0.25,0.25,0.025118864315095794,0,0.4007048299999951
9,176,Control,0.0,0.1,0.01995262314968879,0,0.3488110449998203
9,177,Decrease_null,0.25,0.1,0.1,1,0.4735535730005722
9,178,Equal,0.1,0.1,0.025118864315095794,0,0.40108432699980767
9,179,Control,0.0,0.25,0.009999999999999995,0,0.4693701480000527
9,180,Decrease,0.25,0.1,0.01995262314968879,1,0.42445979900003294
9,181,Control,0.0,0.25,0.012589254117941666,0,0.4007309999997233
9,182,Equal,0.1,0.1,0.031622776601683784,1,0.3079254150006818
9,183,Control,0.0,0.25,0.015848931924611127,0,0.6691118569997343
9,184,Equal,0.25,0.25,0.031622776601683784,1,0.4963362340004096
9,185,Control,0.0,0.25,0.01995262314968879,1,0.779282334000527
9,186,Equal,0.25,0.25,0.02511886431509579,1,0.47820057199987787
9,187,Control,0.0,0.1,0.025118864315095794,1,0.46578396699987934
9,188,Equal,0.25,0.25,0.01995262314968879,0,0.4926691489999939
9,189,Control,0.0,0.25,0.015848931924611127,1,0.49614336300055584
9,190,Control,0.0,0.1,0.01995262314968879,0,0.557110024999929
9,191,Equal,0.1,0.1,0.02511886431509579,1,0.3835662629999206
9,192,Control_null,0.0,0.25,0.05011872336272722,1,0.40279670000018086
9,193,Control,0.0,0.25,0.012589254117941666,0,0.41364162900026713
9,194,Decrease,0.25,0.1,0.015848931924611127,1,0.4860370079995846
9,195,Equal,0.1,0.1,0.01995262314968879,0,0.7623112860001129
9,196,Equal,0.1,0.1,0.025118864315095794,1,0.46750858100040205
9,197,Control,0.0,0.25,0.015848931924611127,1,0.36667308600044635
9,198,Equal,0.1,0.1,0.01995262314968879,0,0.4974744749997626
9,199,Equal,0.1,0.1,0.025118864315095794,1,0.35719482399963454
9,200,Control,0.0,0.25,0.012589254117941666,1,0.4003463899998678
9,201,Equal,0.25,0.25,0.025118864315095794,1,0.3872355650000827
9,202,Equal,0.1,0.1,0.01995262314968879,1,0.23852024999996502
9,203,Control,0.0,0.25,0.009999999999999995,0,0.48277990400038107
9,204,Increase_null,0.1,0.25,0.07943282347242815,1,0.47616065599959256
9,205,Equal,0.25,0.25,0.01995262314968879,0,0.49604603500029043
9,206,Decrease,0.25,0.1,0.012589254117941666,0,0.47241699900041567
9,207,Control_null,0.0,0.25,0.03981071705534971,1,0.4113825040003576
9,208,Equal_null,0.25,0.25,0.06309573444801932,1,0.3106517860005624
9,209,Control,0.0,0.1,0.025118864315095794,1,0.6728530609998415
9,210,Decrease,0.25,0.1,0.015848931924611127,0,0.45998521000001347
9,211,Control,0.0,0.25,0.012589254117941666,0,0.3752983510003105
9,212,Control,0.0,0.1,0.01995262314968879,0,0.4022984760003965
9,213,Control,0.0,0.25,0.015848931924611127,0,0.5345016759993086
9,214,Increase,0.1,0.25,0.015848931924611127,0,0.6030929119997381
9,215,Decrease,0.25,0.1,0.01995262314968879,0,0.652244797000094
9,216,Control,0.0,0.1,0.025118864315095794,1,0.512184717999844
9,217,Control,0.0,0.25,0.01995262314968879,0,0.44135252999967634
9,218,Equal,0.25,0.25,0.025118864315095794,1,0.3722646950000126
9,219,Equal,0.25,0.25,0.01995262314968879,0,0.5497896829992897
9,220,Control,0.0,0.25,0.025118864315095794,1,0.5130519329995877
9,221,Control,0.0,0.25,0.01995262314968879,1,0.4840167080001265
9,222,Equal,0.25,0.25,0.025118864315095794,1,0.36628206499972293
9,223,Control,0.0,0.25,0.015848931924611127,1,0.49755166999966605
9,224,Decrease,0.25,0.1,0.025118864315095794,0,0.3891343360000974
9,225,Decrease,0.25,0.1,0.031622776601683784,1,0.5439451050006028
9,226,Control,0.0,0.1,0.01995262314968879,1,0.5550445310000214
9,227,Equal,0.25,0.25,0.01995262314968879,0,0.46322592700016685
9,228,Control,0.0,0.1,0.015848931924611127,1,0.40922606799995265
9,229,Equal,0.25,0.25,0.025118864315095794,1,0.3736878979998437
9,230,Increase,0.1,0.25,0.01995262314968879,1,0.3829147799997372
9,231,Decrease,0.25,0.1,0.02511886431509579,1,0.45795472000008886
9,232,Equal,0.25,0.25,0.01995262314968879,1,0.5538715399998182
9,233,Control,0.0,0.25,0.012589254117941666,0,0.47833376500057057
9,234,Equal,0.25,0.25,0.015848931924611127,1,0.761616777999734
9,235,Equal,0.1,0.1,0.015848931924611127,1,0.5078151230000003
9,236,Control,0.0,0.1,0.012589254117941666,0,0.46292702500068117
9,237,Equal,0.25,0.25,0.012589254117941666,0,0.5060196190006536
9,238,Equal,0.1,0.1,0.012589254117941666,0,0.5573099690000163
9,239,Decrease,0.25,0.1,0.01995262314968879,0,0.6736034169998675
9,240,Control_null,0.0,0.25,0.031622776601683784,1,0.48163498799931403
9,241,Equal,0.1,0.1,0.015848931924611127,0,0.3737509669999781
9,242,Equal_null,0.1,0.1,0.05011872336272722,1,0.4570467240000653
9,243,Decrease,0.25,0.1,0.025118864315095794,1,0.5563410730001124
9,244,Equal,0.25,0.25,0.015848931924611127,0,0.5201637279997158
9,245,Decrease,0.25,0.1,0.01995262314968879,1,0.45437431700065645
9,246,Increase,0.1,0.25,0.015848931924611127,0,0.49460042100054125
9,247,Decrease,0.25,0.1,0.015848931924611127,1,0.48956708700006857
9,248,Control,0.0,0.25,0.015848931924611127,1,0.41920300499987206
9,249,Control,0.0,0.25,0.012589254117941666,1,0.4464118440000675
9,250,Equal,0.1,0.1,0.01995262314968879,1,0.5185125500001959
9,251,Equal,0.25,0.25,0.01995262314968879,1,0.5134929039995768
9,252,Control,0.0,0.25,0.009999999999999995,1,0.47717884200028493
9,253,Equal,0.1,0.1,0.015848931924611127,0,0.5039386660000673
9,254,Control,0.0,0.1,0.015848931924611127,1,0.7874909440006377
9,255,Increase,0.1,0.25,0.01995262314968879,1,0.4702522850002424
9,256,Increase,0.1,0.25,0.015848931924611127,0,0.5146711020006478
9,257,Control,0.0,0.25,0.00794328234724281,0,0.39945333400009986
9,258,Increase,0.1,0.25,0.01995262314968879,1,0.5794647910006461
9,259,Equal,0.1,0.1,0.01995262314968879,0,0.5644061379998675
9,260,Control,0.0,0.1,0.012589254117941666,0,0.41537659900041035
9,261,Decrease,0.25,0.1,0.012589254117941666,0,0.44862328700037324
9,262,Equal,0.1,0.1,0.025118864315095794,1,0.42787206600041827
9,263,Increase,0.1,0.25,0.015848931924611127,1,0.4118148919997111
9,264,Control,0.0,0.1,0.015848931924611127,0,0.3839508189994376
9,265,Equal,0.1,0.1,0.01995262314968879,1,0.6023315880001974
9,266,Control,0.0,0.1,0.01995262314968879,1,0.4463667030004217
9,267,Equal,0.25,0.25,0.015848931924611127,1,0.38569378099964524
9,268,Equal,0.25,0.25,0.012589254117941666,1,0.38098377300048014
9,269,Increase,0.1,0.25,0.012589254117941666,0,0.44800152800053183
9,270,Equal,0.25,0.25,0.009999999999999995,0,0.41311163699992903
9,271,Equal,0.1,0.1,0.015848931924611127,0,0.5380125430001499
9,272,Control,0.0,0.25,0.009999999999999995,0,0.37075982999976986
9,273,Increase,0.1,0.25,0.015848931924611127,1,0.2938233860004402
9,274,Equal,0.25,0.25,0.012589254117941666,0,0.34186989400041057
9,275,Equal,0.1,0.1,0.01995262314968879,1,0.34485313999994105
9,276,Equal,0.1,0.1,0.015848931924611127,1,0.3863160649998463
9,277,Increase,0.1,0.25,0.012589254117941666,0,0.49221132200000284
9,278,Control,0.0,0.25,0.012589254117941666,0,0.47963088400047127
9,279,Equal,0.1,0.1,0.012589254117941666,0,0.5548449019997861
9,280,Control,0.0,0.1,0.015848931924611127,1,0.5343147930007035
9,281,Increase,0.1,0.25,0.015848931924611127,0,0.5853581700002906
9,282,Increase,0.1,0.25,0.01995262314968879,0,0.4043181450006159
9,283,Control,0.0,0.25,0.015848931924611127,0,0.5529848860005586
9,284,Control,0.0,0.1,0.012589254117941666,0,0.5024818399997457
9,285,Control,0.0,0.1,0.015848931924611127,0,0.37504214199998387
9,286,Increase,0.1,0.25,0.025118864315095794,0,0.362296248000348
9,287,Control,0.0,0.1,0.01995262314968879,0,0.4100816019999911
9,288,Control,0.0,0.1,0.025118864315095794,1,0.4694958379996024
9,289,Equal,0.25,0.25,0.015848931924611127,0,0.47098662899952615
9,290,Decrease,0.25,0.1,0.015848931924611127,0,0.3779534250006691
9,291,Control,0.0,0.1,0.01995262314968879,0,0.5251509479994638
9,292,Control,0.0,0.1,0.025118864315095794,1,0.408192646000316
9,293,Equal,0.1,0.1,0.015848931924611127,1,0.34840638200057583
9,294,Equal,0.1,0.1,0.012589254117941666,0,0.45567416500034597
9,295,Equal,0.1,0.1,0.015848931924611127,0,0.37097294600062014
9,296,Control,0.0,0.25,0.01995262314968879,0,0.5276660330000595
9,297,Control,0.0,0.25,0.025118864315095794,0,0.4675798729995222
9,298,Equal,0.25,0.25,0.01995262314968879,0,0.49244221200024185
9,299,Decrease,0.25,0.1,0.01995262314968879,0,0.43977778699991177
9,300,Equal,0.1,0.1,0.01995262314968879,0,0.40757918100007373
9,301,Equal,0.25,0.25,0.025118864315095794,1,0.33910601299976406
9,302,Equal,0.25,0.25,0.01995262314968879,1,0.4123448919999646
9,303,Equal,0.25,0.25,0.015848931924611127,0,0.45523793200027285
9,304,Increase,0.1,0.25,0.031622776601683784,1,0.32257651500003703
9,305,Equal,0.1,0.1,0.025118864315095794,1,0.3336879210000916
9,306,Control,0.0,0.25,0.031622776601683784,1,0.32874468800036993
9,307,Equal,0.1,0.1,0.01995262314968879,1,0.3893805659999998
9,308,Increase,0.1,0.25,0.02511886431509579,1,0.3205354149995401
9,309,Equal,0.25,0.25,0.01995262314968879,0,0.39567329500005144
9,310,Control,0.0,0.1,0.01995262314968879,1,0.48970414100040216
9,311,Decrease,0.25,0.1,0.025118864315095794,1,0.32188691400006064
9,312,Decrease,0.25,0.1,0.01995262314968879,1,0.4132728179993137
9,313,Increase,0.1,0.25,0.01995262314968879,1,0.6372672030001922
9,314,Control,0.0,0.1,0.015848931924611127,1,0.40819944299983035
9,315,Control,0.0,0.25,0.02511886431509579,1,0.29765468900041014
9,316,Control_null,0.0,0.25,0.02511886431509579,1,0.5806114130000424
9,317,Equal,0.25,0.25,0.025118864315095794,1,0.409021309000309
9,318,Control,0.0,0.25,0.01995262314968879,1,0.4602212290001262
9,319,Equal,0.25,0.25,0.01995262314968879,1,0.6154705889994148
9,320,Control,0.0,0.25,0.015848931924611127,0,0.5063134090005406
9,321,Control,0.0,0.25,0.01995262314968879,0,0.5177782659993682
9,322,Control,0.0,0.1,0.012589254117941666,1,0.5210946980005247
9,323,Control_null,0.0,0.1,0.06309573444801932,1,0.614105317999929
9,324,Control,0.0,0.1,0.009999999999999995,0,0.4625008100001651
9,325,Control,0.0,0.25,0.025118864315095794,0,0.7544771240000046
9,326,Equal_null,0.1,0.1,0.03981071705534971,1,0.5387133930007622
9,327,Control,0.0,0.25,0.031622776601683784,1,0.557907102000172
9,328,Control,0.0,0.25,0.02511886431509579,1,0.5272771329991883
9,329,Equal,0.25,0.25,0.015848931924611127,0,0.48224816899983125
9,330,Equal,0.25,0.25,0.01995262314968879,1,0.49330686700068327
9,331,Equal,0.25,0.25,0.015848931924611127,1,0.4241547259998697
9,332,Equal_null,0.1,0.1,0.031622776601683784,1,0.4757036480004899
9,333,Equal,0.1,0.1,0.015848931924611127,1,0.40665704000002734
9,334,Increase,0.1,0.25,0.015848931924611127,0,0.2592152689994691
9,335,Equal,0.1,0.1,0.012589254117941666,0,0.3021682399994461
9,336,Decrease,0.25,0.1,0.015848931924611127,0,0.3535249599999588
9,337,Control,0.0,0.25,0.01995262314968879,1,0.4347265199994581
9,338,Equal,0.1,0.1,0.015848931924611127,0,0.509834082999987
9,339,Increase,0.1,0.25,0.01995262314968879,0,0.4461086629999045
9,340,Increase_null,0.1,0.25,0.06309573444801932,1,0.39321971500066866
9,341,Control,0.0,0.25,0.015848931924611127,0,0.41144823499962513
9,342,Equal,0.25,0.25,0.012589254117941666,0,0.39077039400035574
9,343,Control,0.0,0.25,0.01995262314968879,0,0.4097744099999545
9,344,Control,0.0,0.25,0.025118864315095794,0,0.6131436079995183
9,345,Equal,0.25,0.25,0.015848931924611127,0,0.37633419300073
9,346,Control,0.0,0.25,0.031622776601683784,1,0.42753018100029294
9,347,Equal,0.25,0.25,0.01995262314968879,1,0.6475073299998257
9,348,Increase,0.1,0.25,0.025118864315095794,0,0.44269305699981487
9,349,Decrease,0.25,0.1,0.01995262314968879,0,0.5018819850001819
9,350,Equal,0.1,0.1,0.01995262314968879,1,0.5191110789992308
9,351,Decrease_null,0.25,0.1,0.07943282347242815,1,0.40241644300022017
9,352,Control,0.0,0.1,0.012589254117941666,0,0.442421362999994
9,353,Equal,0.1,0.1,0.015848931924611127,1,0.5426239750004243
9,354,Increase,0.1,0.25,0.031622776601683784,1,0.43187357199985854
9,355,Control,0.0,0.1,0.015848931924611127,1,0.4989266440006759
9,356,Decrease,0.25,0.1,0.025118864315095794,1,0.39836574800028757
9,357,Control,0.0,0.1,0.012589254117941666,0,0.729395346000274
9,358,Decrease,0.25,0.1,0.01995262314968879,1,0.46955137599979935
9,359,Increase,0.1,0.25,0.02511886431509579,1,0.4022592279998207
9,360,Control_null,0.0,0.1,0.05011872336272722,1,0.3555299070003457
9,361,Control,0.0,0.25,0.02511886431509579,0,0.43039577399940754
9,362,Control,0.0,0.25,0.031622776601683784,1,0.44954835699991236
9,363,Equal,0.25,0.25,0.015848931924611127,1,0.6499933919994874
9,364,Equal,0.1,0.1,0.012589254117941666,0,0.38931236600001284
9,365,Increase,0.1,0.25,0.01995262314968879,0,0.4321456309999121
9,366,Decrease,0.25,0.1,0.015848931924611127,0,0.37935157700030686
9,367,Decrease,0.25,0.1,0.01995262314968879,0,0.48681470600058674
9,368,Decrease,0.25,0.1,0.025118864315095794,1,0.4738014940003268
9,369,Decrease,0.25,0.1,0.01995262314968879,0,0.43095165100021404
9,370,Equal,0.1,0.1,0.015848931924611127,1,0.490929049999977
9,371,Decrease,0.25,0.1,0.025118864315095794,1,0.5412418750001962
9,372,Control,0.0,0.25,0.02511886431509579,1,0.4725087139995594
9,373,Decrease,0.25,0.1,0.01995262314968879,0,0.45681739000065136
9,374,Increase,0.1,0.25,0.025118864315095794,1,0.35586522900030104
9,375,Decrease,0.25,0.1,0.025118864315095794,1,0.35616958899936435
9,376,Increase,0.1,0.25,0.01995262314968879,0,0.3833013690000371
9,377,Control,0.0,0.1,0.015848931924611127,1,0.4494073819996629
9,378,Control,0.0,0.1,0.012589254117941666,0,0.4285916039998483
9,379,Control,0.0,0.25,0.01995262314968879,1,0.48777866099953826
9,380,Control,0.0,0.1,0.015848931924611127,1,0.44310171300003276
9,381,Equal,0.1,0.1,0.012589254117941666,0,0.42228309199981595
9,382,Equal,0.1,0.1,0.015848931924611127,0,0.41979695899954095
9,383,Equal,0.1,0.1,0.01995262314968879,1,0.43209224499969423
9,384,Control,0.0,0.1,0.012589254117941666,0,0.5777562550001676
9,385,Control,0.0,0.25,0.015848931924611127,0,0.620866481000121
9,386,Decrease,0.25,0.1,0.01995262314968879,0,0.5023850340003264
9,387,Equal,0.25,0.25,0.012589254117941666,0,0.4012079250005627
9,388,Control,0.0,0.25,0.01995262314968879,0,0.5295344220003244
9,389,Equal_null,0.25,0.25,0.05011872336272722,1,0.3807789430002231
9,390,Decrease,0.25,0.1,0.025118864315095794,1,0.2879312020004363
9,391,Equal,0.1,0.1,0.015848931924611127,0,0.402834346000418
9,392,Increase_null,0.1,0.25,0.05011872336272722,1,0.32623640400015574
9,393,Control,0.0,0.1,0.015848931924611127,1,0.5385165300003791
9,394,Increase_null,0.1,0.25,0.03981071705534971,1,0.39790023600016866
9,395,Control,0.0,0.25,0.025118864315095794,1,0.39426999499937665
9,396,Equal,0.1,0.1,0.01995262314968879,0,0.4235776730001817
9,397,Control_null,0.0,0.25,0.01995262314968879,1,0.39201253000010183
9,398,Increase_null,0.1,0.25,0.031622776601683784,1,0.39554871400014235
9,399,Control,0.0,0.25,0.01995262314968879,1,0.38058212800024194
9,400,Equal,0.25,0.25,0.015848931924611127,1,0.6157883530004256
9,401,Control,0.0,0.1,0.012589254117941666,0,0.7119754550003563
9,402,Increase,0.1,0.25,0.025118864315095794,1,0.5071515770005135
9,403,Decrease,0.25,0.1,0.01995262314968879,1,0.606315922000249
9,404,Decrease_null,0.25,0.1,0.06309573444801932,1,0.4506176670001878
9,405,Decrease,0.25,0.1,0.015848931924611127,1,0.421764276000431
9,406,Increase,0.1,0.25,0.01995262314968879,1,0.5129028190003737
9,407,Control,0.0,0.1,0.015848931924611127,1,0.6519933409999794
9,408,Control,0.0,0.1,0.012589254117941666,0,0.3923429540000143
9,409,Control,0.0,0.25,0.015848931924611127,1,0.5979841289999968
9,410,Decrease,0.25,0.1,0.012589254117941666,0,0.5345570139998017
9,411,Equal,0.1,0.1,0.025118864315095794,1,0.5297456569996939
9,412,Control_null,0.0,0.1,0.03981071705534971,1,0.5141193010003917
9,413,Equal,0.25,0.25,0.012589254117941666,0,0.4211856269994314
9,414,Control,0.0,0.25,0.012589254117941666,0,0.3183763020006154
9,415,Equal,0.1,0.1,0.01995262314968879,0,0.5376539499993669
9,416,Equal,0.25,0.25,0.015848931924611127,1,0.5569068450004124
9,417,Equal,0.1,0.1,0.025118864315095794,1,0.49605828799940355
9,418,Equal,0.1,0.1,0.01995262314968879,1,0.5302708749995872
9,419,Control,0.0,0.25,0.015848931924611127,0,0.4224619950000488
9,420,Equal,0.1,0.1,0.015848931924611127,0,0.3936516389994722
9,421,Increase_null,0.1,0.25,0.02511886431509579,1,0.46218673400016996
9,422,Equal,0.25,0.25,0.012589254117941666,0,0.39421171699996194
9,423,Equal,0.25,0.25,0.015848931924611127,0,0.35405029200046556
9,424,Equal,0.1,0.1,0.01995262314968879,0,0.4703789940003844
9,425,Decrease,0.25,0.1,0.015848931924611127,1,0.390488760000153
9,426,Increase,0.1,0.25,0.015848931924611127,1,0.5054060230004325
9,427,Control,0.0,0.1,0.015848931924611127,0,0.6019273709998743
9,428,Decrease,0.25,0.1,0.012589254117941666,0,0.46877546299947426
9,429,Control,0.0,0.25,0.01995262314968879,0,0.4250338609999744
9,430,Decrease,0.25,0.1,0.015848931924611127,0,0.4203797439995469
9,431,Increase_null,0.1,0.25,0.01995262314968879,1,0.3835661560005974
9,432,Equal,0.1,0.1,0.025118864315095794,0,0.46687800499967125
9,433,Decrease,0.25,0.1,0.01995262314968879,1,0.5181213269997897
9,434,Equal,0.25,0.25,0.01995262314968879,1,0.49088839500018366
9,435,Increase,0.1,0.25,0.012589254117941666,0,0.48630156699982763
9,436,Decrease,0.25,0.1,0.015848931924611127,0,0.5034795780002241
9,437,Equal,0.25,0.25,0.015848931924611127,0,0.39465062399995077
9,438,Decrease,0.25,0.1,0.01995262314968879,0,0.45904569599952083
9,439,Equal,0.1,0.1,0.031622776601683784,1,0.3420081710000886
9,440,Equal,0.1,0.1,0.02511886431509579,1,0.24727297000026738
9,441,Increase,0.1,0.25,0.015848931924611127,1,0.3463355510002657
9,442,Increase_null,0.1,0.25,0.015848931924611127,1,0.3495965990005061
9,443,Control,0.0,0.25,0.025118864315095794,1,0.37786127100025624
9,444,Control_null,0.0,0.1,0.031622776601683784,1,0.429095946000416
9,445,Control,0.0,0.25,0.01995262314968879,0,0.21619630199984385
9,446,Equal,0.1,0.1,0.01995262314968879,1,0.5955422360002558
9,447,Equal,0.25,0.25,0.01995262314968879,1,0.6084937079995143
9,448,Control,0.0,0.1,0.01995262314968879,0,0.44398299699969357
9,449,Increase,0.1,0.25,0.012589254117941666,1,0.4839712449993385
9,450,Decrease,0.25,0.1,0.025118864315095794,1,0.7910756960000072
9,451,Control,0.0,0.1,0.025118864315095794,1,0.4163085719992523
9,452,Control,0.0,0.25,0.025118864315095794,1,0.35548098100025527
9,453,Equal,0.1,0.1,0.015848931924611127,0,0.4284664540000449
9,454,Equal,0.25,0.25,0.015848931924611127,1,0.343916451000041
9,455,Equal,0.25,0.25,0.012589254117941666,0,0.4511563850001039
9,456,Decrease,0.25,0.1,0.01995262314968879,1,0.45504923300086375
9,457,Control_null,0.0,0.25,0.015848931924611127,1,0.42644478700003674
9,458,Decrease,0.25,0.1,0.015848931924611127,1,0.47760648500025127
9,459,Equal,0.25,0.25,0.015848931924611127,1,0.681937858999845
9,460,Increase,0.1,0.25,0.009999999999999995,0,0.3881484110006568
9,461,Control,0.0,0.1,0.01995262314968879,1,0.5771922549993178
9,462,Equal,0.1,0.1,0.01995262314968879,0,0.4503240359999836
9,463,Equal,0.25,0.25,0.012589254117941666,0,0.4215452019998338
9,464,Increase,0.1,0.25,0.012589254117941666,0,0.5177779460000238
9,465,Control,0.0,0.25,0.01995262314968879,0,0.48878348600010213
9,466,Decrease,0.25,0.1,0.012589254117941666,0,0.3791572649997761
9,467,Increase,0.1,0.25,0.015848931924611127,1,0.5583119680004529
9,468,Decrease,0.25,0.1,0.015848931924611127,1,0.4975209989997893
9,469,Equal,0.1,0.1,0.025118864315095794,1,0.4519029840002986
9,470,Equal,0.1,0.1,0.01995262314968879,0,0.5757474040001398
9,471,Decrease,0.25,0.1,0.012589254117941666,0,0.5068717869999091
9,472,Equal,0.25,0.25,0.015848931924611127,0,0.41531359700002213
9,473,Increase,0.1,0.25,0.012589254117941666,0,0.37807603200053563
9,474,Control,0.0,0.25,0.025118864315095794,1,0.38963641699956497
9,475,Increase,0.1,0.25,0.015848931924611127,1,0.35069086600015
9,476,Equal,0.25,0.25,0.01995262314968879,1,0.4259488970001257
9,477,Increase,0.1,0.25,0.012589254117941666,0,0.7144202740000765
9,478,Control,0.0,0.1,0.015848931924611127,1,0.4921449939993181
9,479,Control,0.0,0.1,0.012589254117941666,0,0.6067285839999386
9,480,Equal,0.1,0.1,0.025118864315095794,1,0.5054152769998836
9,481,Equal,0.1,0.1,0.01995262314968879,0,0.4357357500002763
9,482,Control,0.0,0.1,0.015848931924611127,0,0.42293066199999885
9,483,Equal,0.1,0.1,0.025118864315095794,0,0.42285169399929146
9,484,Equal,0.1,0.1,0.031622776601683784,1,0.5142589679999219
9,485,Equal,0.25,0.25,0.015848931924611127,0,0.3954228780003177
9,486,Decrease,0.25,0.1,0.015848931924611127,1,0.5106661230001919
9,487,Equal,0.25,0.25,0.01995262314968879,1,0.47289700900000753
9,488,Increase,0.1,0.25,0.015848931924611127,1,0.49309976099993946
9,489,Equal,0.25,0.25,0.015848931924611127,1,0.4000898630001757
9,490,Control,0.0,0.25,0.01995262314968879,1,0.6354130929994426
9,491,Equal,0.1,0.1,0.02511886431509579,0,0.5429849359998116
9,492,Equal,0.1,0.1,0.031622776601683784,1,0.4444254219997674
9,493,Control,0.0,0.1,0.01995262314968879,1,0.7440948869998465
9,494,Equal,0.25,0.25,0.012589254117941666,0,0.4171793629993772
9,495,Increase,0.1,0.25,0.012589254117941666,0,0.38120808500025305
9,496,Decrease,0.25,0.1,0.012589254117941666,0,0.42970120800055156
9,497,Control,0.0,0.25,0.015848931924611127,0,0.4647819519996119
9,498,Control,0.0,0.1,0.015848931924611127,1,0.6566610879999644
9,499,Increase,0.1,0.25,0.015848931924611127,1,0.7403597009997611
9,500,Equal,0.25,0.25,0.015848931924611127,0,0.5193323739995321
9,501,Equal,0.1,0.1,0.02511886431509579,0,0.49034500299967476
9,502,Decrease_null,0.25,0.1,0.05011872336272722,1,0.38962422300028265
9,503,Decrease,0.25,0.1,0.015848931924611127,1,0.5046186740000849
9,504,Decrease,0.25,0.1,0.012589254117941666,0,0.6774808769996525
9,505,Decrease,0.25,0.1,0.015848931924611127,1,0.474705976000223
9,506,Control_null,0.0,0.25,0.012589254117941666,1,0.40769056099998124
9,507,Decrease,0.25,0.1,0.012589254117941666,0,99
9,508,Control,0.0,0.25,0.01995262314968879,0,0.5148102809998818
9,509,Equal,0.25,0.25,0.01995262314968879,1,0.7879975940004442
9,510,Equal,0.25,0.25,0.015848931924611127,0,0.4871979260005901
9,511,Equal,0.25,0.25,0.01995262314968879,0,0.4792358830000012
9,512,Equal,0.25,0.25,0.025118864315095794,0,0.7223804570003267
9,513,Decrease,0.25,0.1,0.015848931924611127,1,0.6615381970004819
9,514,Control,0.0,0.25,0.025118864315095794,1,0.6729660230002992
9,515,Decrease,0.25,0.1,0.012589254117941666,0,0.4612136969999483
9,516,Control_null,0.0,0.25,0.009999999999999995,1,0.39232995900056267
9,517,Control,0.0,0.1,0.012589254117941666,0,0.4920935600002849
9,518,Decrease,0.25,0.1,0.015848931924611127,0,0.3931877600007283
9,519,Control,0.0,0.25,0.01995262314968879,0,0.4382426760003
9,520,Control,0.0,0.25,0.025118864315095794,0,0.42976971799998864
9,521,Equal,0.1,0.1,0.031622776601683784,1,0.4502611439993416
9,522,Equal,0.25,0.25,0.031622776601683784,1,0.5065217530000155
9,523,Equal,0.1,0.1,0.02511886431509579,1,0.5486374660004003
9,524,Equal,0.25,0.25,0.02511886431509579,1,0.5658008760001394
9,525,Equal,0.25,0.25,0.01995262314968879,1,0.6487706830002935
9,526,Control,0.0,0.25,0.031622776601683784,1,0.4202733629999784
9,527,Increase,0.1,0.25,0.012589254117941666,1,0.4541762779999772
9,528,Equal_null,0.1,0.1,0.02511886431509579,1,0.5225049219998255
9,529,Decrease,0.25,0.1,0.01995262314968879,1,0.5656798949994482
9,530,Control,0.0,0.25,0.02511886431509579,0,0.5298367690002124
9,531,Decrease,0.25,0.1,0.015848931924611127,1,0.33429648499986797
9,532,Equal,0.25,0.25,0.015848931924611127,0,0.49157277599988447
9,533,Increase,0.1,0.25,0.009999999999999995,0,0.5392852820004919
9,534,Control,0.0,0.25,0.031622776601683784,0,0.4796039100001508
9,535,Increase,0.1,0.25,0.012589254117941666,0,0.5199725559996295
9,536,Control_null,0.0,0.1,0.02511886431509579,1,0.4669967820000238
9,537,Control,0.0,0.25,0.03981071705534971,1,0.3960198650001985
9,538,Control,0.0,0.1,0.015848931924611127,0,0.4234189049993802
9,539,Equal,0.25,0.25,0.01995262314968879,0,0.4665006570003243
9,540,Equal,0.25,0.25,0.025118864315095794,1,0.4136271220004346
9,541,Equal,0.25,0.25,0.01995262314968879,0,0.400774814000215
9,542,Decrease,0.25,0.1,0.012589254117941666,0,0.40416710400040756
9,543,Control,0.0,0.1,0.01995262314968879,0,0.4717463239994686
9,544,Equal,0.25,0.25,0.025118864315095794,0,0.37364251100007095
9,545,Equal,0.1,0.1,0.01995262314968879,1,0.5863721209998403
9,546,Decrease,0.25,0.1,0.015848931924611127,1,0.5548454290001246
9,547,Control,0.0,0.1,0.025118864315095794,1,0.2858981290000884
9,548,Control,0.0,0.1,0.01995262314968879,1,0.5822864540004957
9,549,Equal,0.25,0.25,0.031622776601683784,1,0.3935426650004956
9,550,Control,0.0,0.25,0.031622776601683784,1,0.5942734780001047
9,551,Equal,0.25,0.25,0.02511886431509579,1,0.4294999249996181
9,552,Decrease,0.25,0.1,0.012589254117941666,0,0.5127878020002754
9,553,Equal,0.25,0.25,0.01995262314968879,1,0.5652795699998023
9,554,Increase,0.1,0.25,0.015848931924611127,1,0.6565652129993396
9,555,Control,0.0,0.1,0.015848931924611127,1,0.7154481399993529
9,556,Control,0.0,0.25,0.02511886431509579,1,0.6625795139998445
9,557,Equal,0.25,0.25,0.015848931924611127,1,0.5805955069999982
9,558,Control,0.0,0.25,0.01995262314968879,1,0.6336235440003293
9,559,Increase,0.1,0.25,0.012589254117941666,0,0.5131593120004254
9,560,Decrease,0.25,0.1,0.015848931924611127,1,0.636328716999742
9,561,Equal,0.1,0.1,0.015848931924611127,0,0.5497875860000931
9,562,Control,0.0,0.1,0.012589254117941666,0,0.44885092499953316
9,563,Decrease,0.25,0.1,0.012589254117941666,0,0.5458342359997914
9,564,Equal,0.25,0.25,0.012589254117941666,0,0.46104194600047776
9,565,Control,0.0,0.25,0.015848931924611127,0,0.472030645999439
9,566,Control,0.0,0.25,0.01995262314968879,0,0.4275516859997879
9,567,Increase,0.1,0.25,0.015848931924611127,1,0.775792372000069
9,568,Control,0.0,0.1,0.015848931924611127,0,0.811164302999714
9,569,Increase,0.1,0.25,0.012589254117941666,0,0.7987964969997847
9,570,Control,0.0,0.1,0.01995262314968879,0,0.6199446210002861
9,571,Decrease,0.25,0.1,0.015848931924611127,0,0.4451869650001754
9,572,Increase,0.1,0.25,0.015848931924611127,0,0.5278003980001813
9,573,Control,0.0,0.25,0.025118864315095794,1,0.3627088739995088
9,574,Equal_null,0.1,0.1,0.01995262314968879,1,0.3401966140008881
9,575,Equal,0.1,0.1,0.01995262314968879,0,0.43936887300060334
9,576,Equal,0.1,0.1,0.025118864315095794,1,0.544568526999683
9,577,Increase,0.1,0.25,0.01995262314968879,1,0.5877882009999666
9,578,Equal,0.1,0.1,0.01995262314968879,0,0.5908070970008339
9,579,Equal,0.25,0.25,0.015848931924611127,0,0.5061371239999062
9,580,Equal,0.25,0.25,0.01995262314968879,0,0.3410967879999589
9,581,Decrease,0.25,0.1,0.01995262314968879,1,0.5763287170002513
9,582,Control,0.0,0.1,0.025118864315095794,0,0.5876930809999976
9,583,Control,0.0,0.25,0.01995262314968879,0,0.5200360919998275
9,584,Equal,0.1,0.1,0.025118864315095794,1,0.592093596000268
9,585,Equal,0.25,0.25,0.025118864315095794,1,0.5789926220004418
9,586,Control,0.0,0.25,0.025118864315095794,1,0.43823538400010875
9,587,Control,0.0,0.25,0.01995262314968879,1,0.41543718299999455
9,588,Equal,0.1,0.1,0.01995262314968879,0,0.506861335999929
9,589,Control,0.0,0.25,0.015848931924611127,0,0.6199872069992125
9,590,Equal,0.25,0.25,0.01995262314968879,0,0.4310462839994216
9,591,Decrease,0.25,0.1,0.015848931924611127,0,0.5303050830007123
9,592,Equal,0.1,0.1,0.025118864315095794,1,0.6065034379998906
9,593,Control,0.0,0.25,0.01995262314968879,0,0.39426413899946056
9,594,Control,0.0,0.1,0.031622776601683784,1,0.4388918749991717
9,595,Control,0.0,0.25,0.025118864315095794,1,0.5786337169993203
9,596,Control,0.0,0.25,0.01995262314968879,0,0.5892424250005206
9,597,Equal,0.1,0.1,0.01995262314968879,1,0.6131049390005501
9,598,Control,0.0,0.25,0.025118864315095794,1,0.504409253000631
9,599,Increase,0.1,0.25,0.015848931924611127,1,0.5558138659998804
9,600,Control,0.0,0.1,0.02511886431509579,0,0.4059091780000017
9,601,Decrease,0.25,0.1,0.01995262314968879,0,0.4313025049996213
9,602,Decrease,0.25,0.1,0.025118864315095794,0,0.5463482040004237
9,603,Equal,0.1,0.1,0.015848931924611127,0,0.476542151999638
9,604,Decrease,0.25,0.1,0.031622776601683784,1,0.4716980980001608
9,605,Equal,0.1,0.1,0.01995262314968879,1,0.3947459920000256
9,606,Equal,0.1,0.1,0.015848931924611127,0,0.4631438119995437
9,607,Decrease_null,0.25,0.1,0.03981071705534971,1,0.4184580000001006
9,608,Equal,0.1,0.1,0.01995262314968879,1,0.5039953899995453
9,609,Control,0.0,0.25,0.01995262314968879,1,0.4284676529996432
9,610,Decrease,0.25,0.1,0.02511886431509579,1,0.5088547429995742
9,611,Equal,0.25,0.25,0.025118864315095794,1,0.7436566530004711
9,612,Decrease,0.25,0.1,0.01995262314968879,1,0.48037568400013697
9,613,Decrease,0.25,0.1,0.015848931924611127,0,0.31650984099997004
9,614,Control,0.0,0.25,0.015848931924611127,0,0.4199320939997051
9,615,Increase,0.1,0.25,0.012589254117941666,0,0.29580565899959765
9,616,Equal,0.1,0.1,0.015848931924611127,0,0.3951256120008111
9,617,Equal,0.25,0.25,0.01995262314968879,1,0.486266591000458
9,618,Equal,0.25,0.25,0.015848931924611127,1,0.6572697829997196
9,619,Equal,0.25,0.25,0.012589254117941666,0,0.6208015890006209
9,620,Equal,0.25,0.25,0.015848931924611127,1,0.5116640559999723
9,621,Decrease,0.25,0.1,0.01995262314968879,0,0.4520240490001015
9,622,Equal,0.25,0.25,0.012589254117941666,0,0.40066656399994827
9,623,Control,0.0,0.1,0.031622776601683784,1,0.45037319700077205
9,624,Control,0.0,0.25,0.01995262314968879,1,0.5335401980000825
9,625,Equal_null,0.1,0.1,0.015848931924611127,1,0.4533101679999163
9,626,Decrease,0.25,0.1,0.025118864315095794,1,0.4877475339999364
9,627,Decrease,0.25,0.1,0.01995262314968879,0,0.5610610470002939
9,628,Control_null,0.0,0.1,0.01995262314968879,1,0.38847469900065335
9,629,Control,0.0,0.25,0.015848931924611127,0,0.407458988000144
9,630,Equal,0.25,0.25,0.015848931924611127,0,0.4265836139993553
9,631,Equal,0.1,0.1,0.01995262314968879,0,0.45366908500000136
9,632,Decrease,0.25,0.1,0.025118864315095794,1,0.536854544999187
9,633,Equal,0.25,0.25,0.01995262314968879,0,0.5011679360004564
9,634,Control,0.0,0.25,0.01995262314968879,0,0.3697997210001631
9,635,Equal,0.1,0.1,0.025118864315095794,0,0.39039088299978175
9,636,Equal,0.25,0.25,0.025118864315095794,0,0.486784376000287
9,637,Increase,0.1,0.25,0.015848931924611127,0,0.41001745199992
9,638,Control,0.0,0.25,0.025118864315095794,0,0.17920513799981563
9,639,Equal,0.25,0.25,0.031622776601683784,1,0.3983696630002669
9,640,Control,0.0,0.1,0.02511886431509579,0,0.542509500000051
9,641,Decrease,0.25,0.1,0.01995262314968879,0,0.38656083199930436
9,642,Decrease,0.25,0.1,0.025118864315095794,1,0.4219042069998977
9,643,Equal,0.25,0.25,0.02511886431509579,1,0.4010644529998899
9,644,Increase,0.1,0.25,0.01995262314968879,0,0.547413043999768
9,645,Control,0.0,0.1,0.031622776601683784,1,0.4315323319997333
9,646,Equal,0.25,0.25,0.01995262314968879,0,0.3784868650000135
9,647,Control,0.0,0.25,0.031622776601683784,1,0.39893156299967814
9,648,Increase,0.1,0.25,0.025118864315095794,1,0.46808451500055526
9,649,Equal,0.25,0.25,0.025118864315095794,1,0.44521264799914206
9,650,Control,0.0,0.1,0.02511886431509579,1,0.42507242600004247
9,651,Control,0.0,0.25,0.02511886431509579,1,0.5856387229996471
9,652,Control,0.0,0.1,0.01995262314968879,0,0.5088226449997819
9,653,Equal_null,0.25,0.25,0.03981071705534971,1,0.46170592999988
9,654,Control,0.0,0.25,0.01995262314968879,0,0.5290536559996326
9,655,Increase,0.1,0.25,0.01995262314968879,0,0.5803701149998233
9,656,Increase,0.1,0.25,0.025118864315095794,1,0.5435899920003067
9,657,Control,0.0,0.25,0.025118864315095794,1,0.4986590309999883
9,658,Equal_null,0.1,0.1,0.012589254117941666,1,0.5020182100006423
9,659,Control,0.0,0.25,0.01995262314968879,0,0.609887066999363
9,660,Equal,0.1,0.1,0.031622776601683784,1,0.39751734000037686
9,661,Increase,0.1,0.25,0.01995262314968879,0,0.47498446999998123
9,662,Control,0.0,0.25,0.025118864315095794,1,0.63574715499999
9,663,Control,0.0,0.1,0.025118864315095794,1,0.46280424799988396
9,664,Equal,0.1,0.1,0.02511886431509579,1,0.3589601539997602
9,665,Increase,0.1,0.25,0.025118864315095794,1,0.4101175920004607
9,666,Increase,0.1,0.25,0.01995262314968879,1,0.3713511549995019
9,667,Control,0.0,0.25,0.01995262314968879,0,0.44649141799982317
9,668,Control,0.0,0.25,0.025118864315095794,1,0.5776636110003892
9,669,Control,0.0,0.1,0.01995262314968879,0,0.4137491029996454
9,670,Equal,0.25,0.25,0.01995262314968879,1,0.4651028509997559
9,671,Equal,0.25,0.25,0.015848931924611127,1,0.378855091999867
9,672,Control_null,0.0,0.25,0.00794328234724281,1,0.38214341399998375
9,673,Control_null,0.0,0.1,0.015848931924611127,1,0.5232235509993188
9,674,Control,0.0,0.1,0.025118864315095794,1,0.43239390199960326
9,675,Control,0.0,0.1,0.01995262314968879,1,0.5437901619998229
9,676,Control,0.0,0.25,0.01995262314968879,0,0.15536829000029684
9,677,Equal,0.25,0.25,0.012589254117941666,0,0.46743630100081646
9,678,Equal,0.25,0.25,0.015848931924611127,0,0.3582615320001423
9,679,Equal,0.25,0.25,0.01995262314968879,0,0.11174416899939388
9,680,Increase,0.1,0.25,0.015848931924611127,0,0.6190828849994432
9,681,Control,0.0,0.1,0.015848931924611127,0,0.6230458190002537
9,682,Increase,0.1,0.25,0.01995262314968879,0,0.4823878560000594
9,683,Control,0.0,0.1,0.01995262314968879,0,0.5655340459998115
9,684,Equal,0.1,0.1,0.01995262314968879,0,0.41676260999975057
9,685,Control,0.0,0.25,0.025118864315095794,1,0.5240055639997081
9,686,Decrease,0.25,0.1,0.01995262314968879,1,0.5768188179999925
9,687,Control_null,0.0,0.1,0.012589254117941666,0,0.5800157590001618
9,688,Decrease,0.25,0.1,0.015848931924611127,0,0.4843269439998039
9,689,Control,0.0,0.25,0.01995262314968879,0,0.4485557139996672
9,690,Equal_null,0.25,0.25,0.031622776601683784,1,0.36873040899990883
9,691,Equal,0.25,0.25,0.025118864315095794,0,0.5561982750004972
9,692,Equal,0.1,0.1,0.025118864315095794,1,0.5327848030001405
9,693,Control,0.0,0.1,0.025118864315095794,1,0.6643329070002437
9,694,Equal,0.25,0.25,0.031622776601683784,1,0.4046581399998104
9,695,Increase_null,0.1,0.25,0.012589254117941666,1,0.4156985019999411
9,696,Control,0.0,0.1,0.01995262314968879,1,0.49102170999958616
9,697,Equal,0.25,0.25,0.02511886431509579,1,0.3422020709995195
9,698,Control,0.0,0.25,0.025118864315095794,1,0.5212272170001597
9,699,Equal,0.25,0.25,0.01995262314968879,0,0.5341531909998594
9,700,Increase,0.1,0.25,0.025118864315095794,0,0.7142937400003575
9,701,Decrease_null,0.25,0.1,0.031622776601683784,1,0.40166966100059653
9,702,Equal,0.1,0.1,0.01995262314968879,0,0.5730437009997331
9,703,Control,0.0,0.25,0.01995262314968879,0,0.501358894999612
9,704,Increase,0.1,0.25,0.031622776601683784,1,0.44946598499973334
9,705,Control,0.0,0.1,0.015848931924611127,0,0.49856355599968083
9,706,Equal,0.1,0.1,0.025118864315095794,0,0.5817826120000973
9,707,Equal,0.1,0.1,0.031622776601683784,0,0.7531434709999303
9,708,Equal,0.25,0.25,0.025118864315095794,1,0.47617757199986954
9,709,Equal,0.1,0.1,0.03981071705534971,1,0.42448803700062854
9,710,Increase,0.1,0.25,0.02511886431509579,1,0.40370086600069044
9,711,Equal,0.25,0.25,0.01995262314968879,0,0.40783185599957505
9,712,Increase,0.1,0.25,0.01995262314968879,1,0.3789464030005547
9,713,Decrease,0.25,0.1,0.01995262314968879,1,0.3366251840006953
9,714,Control,0.0,0.1,0.01995262314968879,1,0.464210207999713
9,715,Control,0.0,0.1,0.015848931924611127,0,0.3873763860001418
9,716,Control,0.0,0.1,0.01995262314968879,1,0.45152580400008446
9,717,Equal,0.1,0.1,0.031622776601683784,1,0.35986926199984737
9,718,Equal,0.1,0.1,0.02511886431509579,1,0.32092905799981963
9,719,Decrease,0.25,0.1,0.015848931924611127,1,0.43590691999997944
9,720,Increase,0.1,0.25,0.015848931924611127,0,0.44835754099949554
9,721,Equal,0.1,0.1,0.01995262314968879,0,0.4115787419996195
9,722,Decrease,0.25,0.1,0.012589254117941666,0,0.3853202999998757
9,723,Control_null,0.0,0.1,0.015848931924611127,1,0.5000203700001293
9,724,Increase,0.1,0.25,0.01995262314968879,0,0.3740753889996995
9,725,Decrease,0.25,0.1,0.015848931924611127,0,0.36099017600008665
9,726,Control,0.0,0.1,0.015848931924611127,0,0.37732821900044655
9,727,Equal,0.1,0.1,0.025118864315095794,1,0.6686889610000435
9,728,Equal,0.1,0.1,0.01995262314968879,0,0.4207346889998007
9,729,Control,0.0,0.1,0.01995262314968879,0,0.3529171229993153
9,730,Control,0.0,0.1,0.025118864315095794,0,0.41227203700054815
9,731,Control,0.0,0.1,0.031622776601683784,1,0.6461748100000477
9,732,Decrease,0.25,0.1,0.01995262314968879,1,0.5295633519999683
9,733,Equal,0.1,0.1,0.025118864315095794,1,0.5086858530003155
9,734,Decrease,0.25,0.1,0.015848931924611127,1,0.3368253429998731
9,735,Equal,0.1,0.1,0.01995262314968879,0,0.4222136300004422
9,736,Equal,0.1,0.1,0.025118864315095794,0,0.5302658889995655
9,737,Equal,0.1,0.1,0.031622776601683784,1,0.5314885220004726
9,738,Control_null,0.0,0.1,0.012589254117941666,1,0.5026687119998314
9,739,Equal,0.1,0.1,0.02511886431509579,1,0.567958175000058
9,740,Increase,0.1,0.25,0.025118864315095794,1,0.4030467200000203
9,741,Equal,0.1,0.1,0.01995262314968879,0,0.45133000199984963
9,742,Increase_null,0.1,0.25,0.009999999999999995,1,0.4305787240000427
9,743,Decrease_null,0.25,0.1,0.02511886431509579,1,0.3776961300000039
9,744,Increase,0.1,0.25,0.01995262314968879,0,0.38824522300001263
9,745,Decrease,0.25,0.1,0.012589254117941666,0,0.368011739999929
9,746,Control,0.0,0.1,0.02511886431509579,1,0.6113930249994155
9,747,Decrease,0.25,0.1,0.015848931924611127,0,0.5344753609997497
9,748,Decrease_null,0.25,0.1,0.01995262314968879,1,0.4041656250001324
9,749,Decrease,0.25,0.1,0.01995262314968879,0,0.48006887499923323
9,750,Control,0.0,0.1,0.01995262314968879,0,0.38471703699997306
9,751,Control_null,0.0,0.1,0.009999999999999995,1,0.4201242530007221
9,752,Control,0.0,0.1,0.025118864315095794,0,0.44545096599995304
9,753,Decrease_null,0.25,0.1,0.015848931924611127,1,0.3602794050002558
9,754,Control,0.0,0.1,0.031622776601683784,1,0.4566441999995732
9,755,Equal,0.1,0.1,0.025118864315095794,0,0.40348465500028396
9,756,Increase,0.1,0.25,0.025118864315095794,1,0.4949757160002264
9,757,Control,0.0,0.1,0.02511886431509579,1,0.5938930550000805
9,758,Increase,0.1,0.25,0.01995262314968879,0,0.5263409399994998
9,759,Control,0.0,0.1,0.01995262314968879,0,0.46549947099993005
9,760,Control,0.0,0.1,0.025118864315095794,0,0.5089177979998567
9,761,Equal,0.1,0.1,0.031622776601683784,1,0.44980985700021847
9,762,Control,0.0,0.1,0.031622776601683784,1,0.5266022080004404
9,763,Decrease_null,0.25,0.1,0.012589254117941666,1,0.39115093700002035
9,764,Control,0.0,0.1,0.02511886431509579,1,0.4424731890003386
9,765,Increase,0.1,0.25,0.025118864315095794,1,0.4518799899997248
9,766,Equal,0.1,0.1,0.02511886431509579,1,0.6309504089995244
9,767,Equal,0.1,0.1,0.01995262314968879,1,0.46294271199985815
9,768,Decrease,0.25,0.1,0.025118864315095794,1,0.43414696699983324
9,769,Increase,0.1,0.25,0.01995262314968879,0,0.5174252050001087
9,770,Increase,0.1,0.25,0.025118864315095794,1,0.40062229500017565
9,771,Control,0.0,0.1,0.01995262314968879,0,0.4278031359999659
9,772,Decrease,0.25,0.1,0.01995262314968879,0,0.615022437999869
9,773,Control,0.0,0.1,0.025118864315095794,1,0.5472037959998488
9,774,Control,0.0,0.1,0.01995262314968879,0,0.5350375060006627
9,775,Equal,0.1,0.1,0.015848931924611127,0,0.7242050679997192
9,776,Equal,0.1,0.1,0.01995262314968879,0,0.44363198500013823
9,777,Control,0.0,0.1,0.025118864315095794,0,0.5907737269999416
9,778,Increase,0.1,0.25,0.01995262314968879,1,0.656569063000461
9,779,Control,0.0,0.1,0.031622776601683784,1,0.45125627600009466
9,780,Control,0.0,0.1,0.02511886431509579,1,0.29941573300038726
9,781,Increase,0.1,0.25,0.015848931924611127,1,0.3905999990001874
9,782,Control,0.0,0.1,0.01995262314968879,0,0.3539644349993978
9,783,Decrease,0.25,0.1,0.025118864315095794,1,0.43702346600002784
9,784,Increase,0.1,0.25,0.012589254117941666,0,0.47211273399989295
9,785,Decrease,0.25,0.1,0.01995262314968879,1,0.6355353999997533
9,786,Increase,0.1,0.25,0.015848931924611127,1,0.6315625770002953
9,787,Decrease,0.25,0.1,0.015848931924611127,1,0.596292326999901
9,788,Decrease,0.25,0.1,0.012589254117941666,0,0.4973520110006575
9,789,Decrease,0.25,0.1,0.015848931924611127,0,0.5702702549997412
9,790,Decrease,0.25,0.1,0.01995262314968879,1,0.6136219950003579
9,791,Increase,0.1,0.25,0.012589254117941666,0,0.39763681900058145
9,792,Increase,0.1,0.25,0.015848931924611127,0,0.3607617070001652
9,793,Decrease_null,0.25,0.1,0.009999999999999995,1,0.4738512499998251
9,794,Increase_null,0.1,0.25,0.00794328234724281,1,0.5811777580001944
9,795,Increase,0.1,0.25,0.01995262314968879,0,0.44031243300014467
9,796,Decrease,0.25,0.1,0.015848931924611127,0,0.547584141999323
9,797,Decrease,0.25,0.1,0.01995262314968879,0,0.4237260909994802
9,798,Increase,0.1,0.25,0.025118864315095794,1,0.48287665899988497
9,799,Decrease,0.25,0.1,0.025118864315095794,0,0.4540953690002425
9,800,Increase,0.1,0.25,0.01995262314968879,0,0.3869461290005347
9,801,Decrease,0.25,0.1,0.031622776601683784,1,0.4623280830001022
9,802,Increase,0.1,0.25,0.025118864315095794,0,0.4224794709998605
9,803,Increase,0.1,0.25,0.031622776601683784,1,0.44981258400002844
9,804,Equal_null,0.1,0.1,0.009999999999999995,1,0.45096686799934105
9,805,Increase,0.1,0.25,0.02511886431509579,1,0.5023375279997708
9,806,Increase,0.1,0.25,0.01995262314968879,0,0.4553793229997609
9,807,Increase,0.1,0.25,0.025118864315095794,1,0.46641488000022946
9,808,Increase,0.1,0.25,0.01995262314968879,0,0.37366050299988274
9,809,Increase,0.1,0.25,0.025118864315095794,1,0.7288334229997417
9,810,Increase,0.1,0.25,0.01995262314968879,0,0.47622497100019245
9,811,Increase,0.1,0.25,0.025118864315095794,1,0.33639653000045655
9,812,Increase,0.1,0.25,0.01995262314968879,1,0.4916792570002144
9,813,Increase,0.1,0.25,0.015848931924611127,1,0.711742114000117
9,814,Increase,0.1,0.25,0.012589254117941666,0,0.42157827299979544
9,815,Increase,0.1,0.25,0.015848931924611127,1,0.3892087320000428
9,816,Increase,0.1,0.25,0.012589254117941666,0,0.41630599800009804
9,817,Increase,0.1,0.25,0.015848931924611127,0,0.39344442500078003
9,818,Control_null,0.0,0.1,0.00794328234724281,1,0.3487220730003173
9,819,Increase,0.1,0.25,0.01995262314968879,0,0.34984165800051414
9,820,Increase,0.1,0.25,0.025118864315095794,1,0.36912578999999823
9,821,Equal_null,0.1,0.1,0.00794328234724281,1,0.3801769760002571
9,822,Increase,0.1,0.25,0.01995262314968879,0,0.42345191200001864
9,823,Increase,0.1,0.25,0.025118864315095794,1,0.3946693360003337
9,824,Increase,0.1,0.25,0.01995262314968879,1,0.4137316270007432
9,825,Increase,0.1,0.25,0.015848931924611127,1,0.47409781199985446
9,826,Increase,0.1,0.25,0.012589254117941666,0,0.3803206729999147
9,827,Increase_null,0.1,0.25,0.0063095734448019285,1,0.38418801900024846
9,828,Decrease_null,0.25,0.1,0.00794328234724281,1,0.4005436639999971
9,829,Decrease_null,0.25,0.1,0.0063095734448019285,1,0.2757725239998763
9,830,Equal_null,0.1,0.1,0.0063095734448019285,1,0.12383520000003045
9,831,Increase_null,0.1,0.25,0.005011872336272719,1,0.2721097710000322
9,832,Equal_null,0.25,0.25,0.02511886431509579,1,0.24131936799949472
9,833,Equal_null,0.25,0.25,0.01995262314968879,1,0.35635983100019075
9,834,Equal_null,0.25,0.25,0.015848931924611127,1,0.38359051899988117
9,835,Equal_null,0.25,0.25,0.012589254117941666,1,0.45970190199932404
9,836,Equal_null,0.25,0.25,0.009999999999999995,1,0.40709283300020616
9,837,Equal_null,0.25,0.25,0.00794328234724281,1,0.3860803930001566
9,838,Equal_null,0.25,0.25,0.0063095734448019285,1,0.4464284880004925
9,839,Equal_null,0.25,0.25,0.005011872336272719,1,0.48157232599987765
