Participant_Number,Trial_Number,Condition,FC_distal,FC_proximal,Target_Contrast,Correct_Response,Reaction_Time
17,0,Increase,0.1,0.25,0.1,1,0.7687091540001347
17,1,Equal,0.25,0.25,0.1,1,0.5242655189999823
17,2,Equal,0.25,0.25,0.07943282347242815,1,0.5191652419998718
17,3,Control_null,0.0,0.25,0.1,1,0.7554955129999144
17,4,Increase,0.1,0.25,0.07943282347242815,1,0.4476055919999453
17,5,Equal,0.1,0.1,0.1,1,0.4256665619996056
17,6,Increase,0.1,0.25,0.06309573444801932,1,0.42895755299969096
17,7,Equal,0.1,0.1,0.07943282347242815,1,0.36453742999992755
17,8,Equal,0.25,0.25,0.06309573444801932,1,0.3842402119998951
17,9,Equal,0.25,0.25,0.05011872336272722,1,0.4335353510000459
17,10,Increase,0.1,0.25,0.05011872336272722,1,0.4686730319999697
17,11,Decrease,0.25,0.1,0.1,1,0.41483829600019817
17,12,Control_null,0.0,0.1,0.1,1,0.45777894200000446
17,13,Equal,0.25,0.25,0.03981071705534971,1,0.39736711900059163
17,14,Increase,0.1,0.25,0.03981071705534971,1,0.48024625399921206
17,15,Equal_null,0.25,0.25,0.1,1,0.4673276100002113
17,16,Equal,0.25,0.25,0.031622776601683784,1,0.4414739819994793
17,17,Increase,0.1,0.25,0.031622776601683784,1,0.3170555560000139
17,18,Equal,0.25,0.25,0.02511886431509579,1,0.4461405840002044
17,19,Increase,0.1,0.25,0.02511886431509579,0,0.3854203159999088
17,20,Equal,0.25,0.25,0.01995262314968879,1,0.4414317189994108
17,21,Control,0.0,0.25,0.1,1,0.4838374759992803
17,22,Equal,0.1,0.1,0.06309573444801932,1,0.5806499989994336
17,23,Equal,0.25,0.25,0.015848931924611127,0,0.6560210629995709
17,24,Decrease,0.25,0.1,0.07943282347242815,1,0.38602748699941003
17,25,Control,0.0,0.1,0.1,1,0.438551598000231
17,26,Control,0.0,0.1,0.07943282347242815,1,0.2895024650006235
17,27,Increase,0.1,0.25,0.031622776601683784,1,0.4127869180001653
17,28,Control,0.0,0.25,0.07943282347242815,1,0.43324436100010644
17,29,Equal,0.25,0.25,0.01995262314968879,1,0.44554992799930915
17,30,Equal_null,0.1,0.1,0.1,1,0.48294685400014714
17,31,Equal,0.1,0.1,0.05011872336272722,1,0.4344193159995484
17,32,Decrease,0.25,0.1,0.06309573444801932,1,0.47862807100045757
17,33,Control,0.0,0.1,0.06309573444801932,1,0.566973672000131
17,34,Control,0.0,0.25,0.06309573444801932,1,0.4902779220001321
17,35,Equal,0.1,0.1,0.03981071705534971,0,0.5941757689997758
17,36,Equal,0.25,0.25,0.015848931924611127,0,0.5506494429992017
17,37,Control,0.0,0.25,0.05011872336272722,1,0.44852406500012876
17,38,Control_null,0.0,0.1,0.07943282347242815,1,0.41996618899975147
17,39,Increase,0.1,0.25,0.02511886431509579,1,0.7032359970007747
17,40,Decrease,0.25,0.1,0.05011872336272722,1,0.514177942999595
17,41,Increase,0.1,0.25,0.01995262314968879,1,0.7439251280002281
17,42,Equal,0.25,0.25,0.01995262314968879,0,0.5559627190004903
17,43,Equal,0.25,0.25,0.025118864315095794,0,0.5212052820006647
17,44,Decrease_null,0.25,0.1,0.1,1,0.5849218250004924
17,45,Control,0.0,0.1,0.05011872336272722,1,0.4770209110001815
17,46,Increase,0.1,0.25,0.015848931924611127,0,0.8617469689997961
17,47,Control,0.0,0.1,0.03981071705534971,1,0.4885499110005185
17,48,Control,0.0,0.25,0.03981071705534971,1,0.4726170789999742
17,49,Control,0.0,0.25,0.031622776601683784,1,0.5799824710002213
17,50,Equal_null,0.25,0.25,0.07943282347242815,1,0.6071362479997333
17,51,Control,0.0,0.1,0.031622776601683784,1,0.4981834780001009
17,52,Equal,0.25,0.25,0.031622776601683784,1,0.4305925560001924
17,53,Control,0.0,0.25,0.02511886431509579,1,0.5856290620004074
17,54,Increase,0.1,0.25,0.01995262314968879,0,0.6384970280005291
17,55,Control,0.0,0.1,0.02511886431509579,1,0.7862189089992171
17,56,Decrease,0.25,0.1,0.03981071705534971,1,0.49566553799922985
17,57,Decrease,0.25,0.1,0.031622776601683784,1,0.44024523999996745
17,58,Equal,0.25,0.25,0.02511886431509579,1,0.595562880000216
17,59,Control,0.0,0.1,0.01995262314968879,0,0.13187672599997313
17,60,Decrease,0.25,0.1,0.02511886431509579,1,0.5098121640003228
17,61,Control,0.0,0.25,0.01995262314968879,0,0.5033116409995273
17,62,Increase,0.1,0.25,0.025118864315095794,1,0.5293311980003637
17,63,Control,0.0,0.25,0.025118864315095794,0,0.7244373090006775
17,64,Equal,0.25,0.25,0.01995262314968879,1,0.6558570780007358
17,65,Equal,0.1,0.1,0.05011872336272721,1,0.5079623630008427
17,66,Decrease,0.25,0.1,0.01995262314968879,0,0.5192058299999189
17,67,Increase,0.1,0.25,0.01995262314968879,0,0.6035176739997041
17,68,Control,0.0,0.25,0.031622776601683784,1,0.5196702469993397
17,69,Increase,0.1,0.25,0.025118864315095794,0,0.205250552000507
17,70,Control,0.0,0.25,0.02511886431509579,1,0.5898838920002163
17,71,Control,0.0,0.25,0.01995262314968879,0,0.47977547200025583
17,72,Control,0.0,0.25,0.025118864315095794,0,0.5291252420001911
17,73,Increase,0.1,0.25,0.031622776601683784,0,0.5004018420004286
17,74,Control,0.0,0.25,0.031622776601683784,1,0.6125977060000878
17,75,Equal,0.1,0.1,0.03981071705534971,1,0.6637932680005179
17,76,Control_null,0.0,0.1,0.06309573444801932,1,0.7788756139998441
17,77,Decrease,0.25,0.1,0.025118864315095794,1,0.559069122999972
17,78,Decrease,0.25,0.1,0.01995262314968879,0,0.514223958999537
17,79,Equal,0.1,0.1,0.031622776601683784,0,0.549534209999365
17,80,Control_null,0.0,0.25,0.07943282347242815,1,0.9290557379999882
17,81,Control,0.0,0.1,0.025118864315095794,1,0.9983134710000741
17,82,Control,0.0,0.1,0.01995262314968879,0,0.6913525030004166
17,83,Increase_null,0.1,0.25,0.1,1,0.41121312900031626
17,84,Equal,0.25,0.25,0.015848931924611127,0,0.5422689739998532
17,85,Equal,0.25,0.25,0.01995262314968879,0,0.47155501800079946
17,86,Increase,0.1,0.25,0.03981071705534971,1,0.5708862459996453
17,87,Increase_null,0.1,0.25,0.07943282347242815,1,0.22697794300074747
17,88,Control,0.0,0.25,0.02511886431509579,0,0.12605182900006184
17,89,Decrease,0.25,0.1,0.025118864315095794,0,0.5143564049994893
17,90,Control,0.0,0.25,0.031622776601683784,1,0.5657088219995785
17,91,Control_null,0.0,0.25,0.06309573444801932,0,0.9286939200001143
17,92,Decrease,0.25,0.1,0.031622776601683784,1,0.6119214069994996
17,93,Increase,0.1,0.25,0.031622776601683784,1,0.7113745760007077
17,94,Equal_null,0.25,0.25,0.06309573444801932,1,0.5564911870005744
17,95,Decrease,0.25,0.1,0.02511886431509579,0,0.6255409969999164
17,96,Increase,0.1,0.25,0.02511886431509579,1,0.5625773909996497
17,97,Control,0.0,0.25,0.02511886431509579,1,0.7174444040001617
17,98,Equal,0.1,0.1,0.03981071705534971,0,0.5259240539999155
17,99,Control_null,0.0,0.25,0.07943282347242814,1,0.6573465300007229
17,100,Control,0.0,0.1,0.025118864315095794,1,0.5624564890003967
17,101,Equal,0.1,0.1,0.05011872336272721,1,0.565494487000251
17,102,Equal,0.25,0.25,0.025118864315095794,0,0.5527561259996219
17,103,Equal,0.1,0.1,0.03981071705534971,1,0.5398342609996689
17,104,Control,0.0,0.1,0.01995262314968879,0,0.5831141469998329
17,105,Control_null,0.0,0.25,0.06309573444801932,1,0.32208574500054965
17,106,Equal,0.25,0.25,0.031622776601683784,1,0.4229038430003129
17,107,Control,0.0,0.1,0.025118864315095794,1,0.5225035910007136
17,108,Decrease,0.25,0.1,0.031622776601683784,1,0.6474052610001308
17,109,Equal_null,0.25,0.25,0.05011872336272722,1,0.5441787069994461
17,110,Control,0.0,0.1,0.01995262314968879,0,0.6351083910003581
17,111,Equal,0.1,0.1,0.031622776601683784,1,0.4604861110001366
17,112,Decrease,0.25,0.1,0.02511886431509579,0,0.5516969870004687
17,113,Increase,0.1,0.25,0.01995262314968879,0,0.6808043500004715
17,114,Equal,0.25,0.25,0.02511886431509579,0,0.6517121560000305
17,115,Control,0.0,0.1,0.025118864315095794,1,0.6469862929998271
17,116,Control,0.0,0.1,0.01995262314968879,0,0.7863969310001266
17,117,Decrease,0.25,0.1,0.031622776601683784,0,0.5584563799993703
17,118,Decrease,0.25,0.1,0.03981071705534971,1,0.529778996999994
17,119,Control,0.0,0.25,0.01995262314968879,1,0.5950053779997688
17,120,Decrease,0.25,0.1,0.031622776601683784,1,0.44769877699945937
17,121,Increase,0.1,0.25,0.025118864315095794,1,0.5221163830001387
17,122,Control,0.0,0.1,0.025118864315095794,1,0.7021348409998609
17,123,Equal_null,0.25,0.25,0.03981071705534971,1,0.4703007610005443
17,124,Equal,0.25,0.25,0.031622776601683784,1,0.41753639099988504
17,125,Equal,0.1,0.1,0.02511886431509579,1,0.4414131300000008
17,126,Control_null,0.0,0.1,0.05011872336272722,1,0.5339094500004649
17,127,Equal,0.25,0.25,0.02511886431509579,0,0.7428631289994883
17,128,Equal,0.25,0.25,0.031622776601683784,1,0.5231651800004329
17,129,Control,0.0,0.25,0.015848931924611127,0,0.4940055280003435
17,130,Control,0.0,0.1,0.01995262314968879,0,0.4575938950001728
17,131,Decrease,0.25,0.1,0.02511886431509579,0,0.7645575389997248
17,132,Control,0.0,0.1,0.025118864315095794,1,0.44782599300015136
17,133,Control,0.0,0.25,0.01995262314968879,0,0.34828007600026467
17,134,Decrease,0.25,0.1,0.031622776601683784,1,0.4072232440003063
17,135,Equal_null,0.25,0.25,0.031622776601683784,1,0.3945240439998088
17,136,Control,0.0,0.25,0.025118864315095794,0,0.5628127420004603
17,137,Control,0.0,0.1,0.01995262314968879,0,0.5177776270002141
17,138,Equal,0.1,0.1,0.01995262314968879,0,0.5097740660003183
17,139,Increase,0.1,0.25,0.01995262314968879,0,0.4263239399997474
17,140,Decrease,0.25,0.1,0.02511886431509579,1,0.5085125300001891
17,141,Control,0.0,0.25,0.031622776601683784,1,0.43154530500032706
17,142,Equal_null,0.25,0.25,0.02511886431509579,1,0.5945454839993545
17,143,Control,0.0,0.25,0.02511886431509579,0,0.5658064489998651
17,144,Equal,0.25,0.25,0.02511886431509579,0,0.584959166999397
17,145,Increase,0.1,0.25,0.025118864315095794,1,0.47866460700061
17,146,Decrease,0.25,0.1,0.01995262314968879,0,0.5151775730000736
17,147,Equal,0.25,0.25,0.031622776601683784,1,0.5077002420002827
17,148,Control_null,0.0,0.25,0.05011872336272722,1,0.44688899900029355
17,149,Equal,0.25,0.25,0.02511886431509579,1,0.43199253599959775
17,150,Decrease,0.25,0.1,0.025118864315095794,0,0.38725666099981026
17,151,Equal,0.25,0.25,0.01995262314968879,0,0.6354918139995789
17,152,Increase,0.1,0.25,0.01995262314968879,0,0.6146388580000348
17,153,Decrease,0.25,0.1,0.031622776601683784,1,0.5217151370006832
17,154,Control,0.0,0.1,0.025118864315095794,0,0.46109493899984955
17,155,Control,0.0,0.25,0.031622776601683784,1,0.5282104150001032
17,156,Decrease,0.25,0.1,0.02511886431509579,0,0.6835501230007139
17,157,Increase,0.1,0.25,0.025118864315095794,1,0.6465524189998177
17,158,Increase,0.1,0.25,0.01995262314968879,0,0.5158789759998399
17,159,Control,0.0,0.25,0.02511886431509579,0,0.6319866120002189
17,160,Equal,0.25,0.25,0.025118864315095794,0,0.586251073999847
17,161,Decrease,0.25,0.1,0.031622776601683784,1,0.516356142999939
17,162,Increase,0.1,0.25,0.025118864315095794,0,0.6451960479998888
17,163,Decrease,0.25,0.1,0.02511886431509579,0,0.6564428030005729
17,164,Equal_null,0.25,0.25,0.01995262314968879,1,0.5289131050003562
17,165,Equal_null,0.25,0.25,0.015848931924611127,1,0.4452040730002409
17,166,Increase,0.1,0.25,0.031622776601683784,1,0.48698972599959234
17,167,Equal,0.1,0.1,0.025118864315095794,1,0.49854930299989064
17,168,Decrease,0.25,0.1,0.031622776601683784,0,0.30034558700026537
17,169,Equal,0.1,0.1,0.01995262314968879,0,0.5680172339998535
17,170,Decrease,0.25,0.1,0.03981071705534971,1,0.4831515910000235
17,171,Equal,0.25,0.25,0.031622776601683784,1,0.4647359089995007
17,172,Control,0.0,0.25,0.031622776601683784,1,0.9329731669995454
17,173,Control,0.0,0.25,0.02511886431509579,0,0.7416031430002477
17,174,Increase,0.1,0.25,0.02511886431509579,0,0.4805190080005559
17,175,Control,0.0,0.25,0.031622776601683784,1,0.5527154409992363
17,176,Control,0.0,0.25,0.02511886431509579,0,0.5479160000004413
17,177,Control,0.0,0.1,0.031622776601683784,1,0.5652454479995868
17,178,Increase,0.1,0.25,0.031622776601683784,1,0.6636886389997017
17,179,Decrease,0.25,0.1,0.031622776601683784,1,0.9627720000007685
17,180,Equal,0.25,0.25,0.02511886431509579,0,0.9416116359998341
17,181,Decrease,0.25,0.1,0.02511886431509579,1,0.6328748189998805
17,182,Control,0.0,0.1,0.02511886431509579,1,0.7732949780001945
17,183,Control_null,0.0,0.25,0.03981071705534971,1,0.6409065600000758
17,184,Increase_null,0.1,0.25,0.06309573444801932,1,0.4849104000004445
17,185,Equal,0.25,0.25,0.031622776601683784,1,0.890277456000149
17,186,Control,0.0,0.1,0.01995262314968879,1,0.9310624119998465
17,187,Increase,0.1,0.25,0.02511886431509579,0,0.5262936320004883
17,188,Increase,0.1,0.25,0.031622776601683784,0,0.5505740999997215
17,189,Equal,0.25,0.25,0.02511886431509579,0,0.6097307159998309
17,190,Control,0.0,0.1,0.015848931924611127,0,0.26563790000000154
17,191,Equal,0.25,0.25,0.031622776601683784,1,0.581946569000138
17,192,Decrease_null,0.25,0.1,0.07943282347242815,1,0.5772373049994712
17,193,Increase,0.1,0.25,0.03981071705534971,1,0.5004462670003704
17,194,Control,0.0,0.25,0.031622776601683784,1,0.5354265420000957
17,195,Control,0.0,0.1,0.01995262314968879,0,0.49027939200004766
17,196,Equal,0.1,0.1,0.025118864315095794,0,0.41408600000067963
17,197,Control,0.0,0.1,0.025118864315095794,0,0.4915516739993109
17,198,Decrease,0.25,0.1,0.01995262314968879,0,0.5684666139995898
17,199,Equal_null,0.25,0.25,0.012589254117941666,1,0.15326443899994047
17,200,Equal,0.25,0.25,0.02511886431509579,1,0.9966770320006617
17,201,Decrease,0.25,0.1,0.025118864315095794,1,0.4607725619998746
17,202,Increase,0.1,0.25,0.031622776601683784,1,0.4320039819995145
17,203,Increase,0.1,0.25,0.02511886431509579,0,0.5131268190007177
17,204,Equal,0.25,0.25,0.01995262314968879,0,0.4523283190001166
17,205,Decrease,0.25,0.1,0.01995262314968879,0,0.5274617580007543
17,206,Control,0.0,0.1,0.031622776601683784,1,0.43484572199940885
17,207,Equal,0.1,0.1,0.031622776601683784,1,0.3655078120000326
17,208,Decrease,0.25,0.1,0.025118864315095794,1,0.47283326599972497
17,209,Increase,0.1,0.25,0.031622776601683784,1,0.5414614589999474
17,210,Control,0.0,0.25,0.02511886431509579,1,0.4653831280002123
17,211,Control,0.0,0.25,0.01995262314968879,0,0.5910396469998886
17,212,Equal,0.1,0.1,0.02511886431509579,0,0.5279836019999493
17,213,Control,0.0,0.25,0.025118864315095794,1,0.4991118539992385
17,214,Equal,0.1,0.1,0.031622776601683784,1,0.531172308999885
17,215,Decrease,0.25,0.1,0.01995262314968879,0,0.5422002830000565
17,216,Equal,0.1,0.1,0.02511886431509579,0,0.6156876320001174
17,217,Decrease,0.25,0.1,0.025118864315095794,0,0.5613950080005452
17,218,Decrease,0.25,0.1,0.031622776601683784,1,1.077082963999601
17,219,Equal,0.25,0.25,0.025118864315095794,0,0.776093671000126
17,220,Increase,0.1,0.25,0.02511886431509579,0,0.4902100799999971
17,221,Increase,0.1,0.25,0.031622776601683784,1,0.558497983000052
17,222,Equal,0.25,0.25,0.031622776601683784,0,0.4978652170002533
17,223,Increase,0.1,0.25,0.02511886431509579,0,0.5101532050002788
17,224,Increase,0.1,0.25,0.031622776601683784,1,0.6515885110002273
17,225,Control,0.0,0.1,0.02511886431509579,1,0.5082147889997941
17,226,Control,0.0,0.25,0.01995262314968879,0,0.47136845699969854
17,227,Increase,0.1,0.25,0.02511886431509579,0,0.44791631099997176
17,228,Decrease,0.25,0.1,0.02511886431509579,0,0.5310403390003557
17,229,Control,0.0,0.1,0.01995262314968879,0,0.4680306959999143
17,230,Equal_null,0.1,0.1,0.07943282347242815,1,0.43907081199995446
17,231,Equal,0.25,0.25,0.03981071705534971,1,0.47439875899999606
17,232,Increase,0.1,0.25,0.031622776601683784,1,0.5176848610008165
17,233,Equal,0.25,0.25,0.031622776601683784,1,0.4657391290002124
17,234,Equal_null,0.25,0.25,0.009999999999999995,1,0.605241105999994
17,235,Equal,0.1,0.1,0.031622776601683784,0,0.5591894760000287
17,236,Equal,0.1,0.1,0.03981071705534971,1,0.39679179199993087
17,237,Decrease,0.25,0.1,0.031622776601683784,1,0.3364410569993197
17,238,Decrease,0.25,0.1,0.02511886431509579,0,0.5364304320000883
17,239,Equal,0.1,0.1,0.031622776601683784,0,0.70794584900068
17,240,Equal,0.1,0.1,0.03981071705534971,1,0.4400913519993992
17,241,Equal,0.1,0.1,0.031622776601683784,1,0.40948960999958217
17,242,Equal,0.25,0.25,0.02511886431509579,1,0.468679130000055
17,243,Equal,0.25,0.25,0.01995262314968879,0,0.4538528220000444
17,244,Control,0.0,0.1,0.025118864315095794,0,0.6408482460001323
17,245,Increase,0.1,0.25,0.02511886431509579,0,0.732149882000158
17,246,Equal,0.25,0.25,0.025118864315095794,0,0.5834659080001074
17,247,Equal,0.1,0.1,0.02511886431509579,0,0.7225430100006633
17,248,Control,0.0,0.1,0.031622776601683784,1,0.4785956720006652
17,249,Control,0.0,0.1,0.02511886431509579,1,0.4898404390005453
17,250,Equal,0.25,0.25,0.031622776601683784,1,0.4609892049993505
17,251,Increase,0.1,0.25,0.031622776601683784,1,0.44124066899985337
17,252,Equal,0.1,0.1,0.031622776601683784,1,0.6654516850003347
17,253,Decrease,0.25,0.1,0.031622776601683784,1,0.492517990000124
17,254,Control,0.0,0.1,0.01995262314968879,0,99
17,255,Control,0.0,0.25,0.025118864315095794,1,0.6968344229999275
17,256,Control,0.0,0.1,0.025118864315095794,0,0.5074402330001249
17,257,Decrease,0.25,0.1,0.02511886431509579,0,0.534451665999768
17,258,Control,0.0,0.1,0.031622776601683784,1,0.7775137030002952
17,259,Decrease,0.25,0.1,0.031622776601683784,0,0.3966395460001877
17,260,Equal,0.1,0.1,0.02511886431509579,0,0.343631338000705
17,261,Equal,0.25,0.25,0.02511886431509579,0,0.3723177179999766
17,262,Control,0.0,0.1,0.02511886431509579,0,0.48822679500062804
17,263,Control_null,0.0,0.25,0.031622776601683784,1,0.47468991599998844
17,264,Equal,0.1,0.1,0.031622776601683784,1,0.5027690120004991
17,265,Increase,0.1,0.25,0.02511886431509579,1,0.5916412219994527
17,266,Control,0.0,0.25,0.01995262314968879,0,0.4017581419993803
17,267,Control,0.0,0.25,0.025118864315095794,0,0.5542386219995024
17,268,Control,0.0,0.1,0.031622776601683784,1,0.581489120999322
17,269,Decrease,0.25,0.1,0.03981071705534971,1,0.4397410370002035
17,270,Increase_null,0.1,0.25,0.05011872336272722,1,0.45768278499963344
17,271,Equal,0.25,0.25,0.031622776601683784,1,0.5087122320001072
17,272,Control,0.0,0.25,0.031622776601683784,1,0.4092035430003307
17,273,Decrease,0.25,0.1,0.031622776601683784,1,0.44443009799942956
17,274,Equal,0.1,0.1,0.02511886431509579,1,0.5221407539993379
17,275,Control,0.0,0.1,0.02511886431509579,1,0.5417082849999133
17,276,Control,0.0,0.25,0.02511886431509579,0,0.49581359199964936
17,277,Decrease,0.25,0.1,0.02511886431509579,0,0.45114004099923477
17,278,Control,0.0,0.25,0.031622776601683784,0,0.6112915319999956
17,279,Decrease,0.25,0.1,0.031622776601683784,1,0.5023874989992692
17,280,Equal,0.25,0.25,0.02511886431509579,0,0.43857727799968416
17,281,Equal,0.1,0.1,0.01995262314968879,0,0.42697132200009946
17,282,Control,0.0,0.25,0.03981071705534971,1,0.5490906509994602
17,283,Equal,0.25,0.25,0.031622776601683784,0,0.6882144599994717
17,284,Increase,0.1,0.25,0.01995262314968879,0,0.5471464209995247
17,285,Increase,0.1,0.25,0.025118864315095794,1,0.7662985090000802
17,286,Increase,0.1,0.25,0.01995262314968879,0,0.46564018199933344
17,287,Equal_null,0.1,0.1,0.06309573444801932,1,0.439549683000223
17,288,Increase_null,0.1,0.25,0.03981071705534971,1,0.563559320999957
17,289,Equal,0.25,0.25,0.03981071705534971,0,0.6523928400001751
17,290,Equal,0.25,0.25,0.05011872336272721,1,0.5193221520003135
17,291,Control_null,0.0,0.25,0.02511886431509579,1,0.5037724490002802
17,292,Control,0.0,0.25,0.031622776601683784,0,0.41099611099980393
17,293,Equal,0.25,0.25,0.03981071705534971,1,0.5240666720001173
17,294,Control,0.0,0.25,0.03981071705534971,1,0.5512353829999483
17,295,Equal,0.25,0.25,0.031622776601683784,1,0.5619203379992541
17,296,Increase,0.1,0.25,0.025118864315095794,0,0.5645185220000712
17,297,Control_null,0.0,0.1,0.03981071705534971,1,0.4474649599997065
17,298,Increase,0.1,0.25,0.031622776601683784,1,0.4840237979997255
17,299,Control,0.0,0.25,0.031622776601683784,1,0.4872458210002151
17,300,Equal,0.1,0.1,0.025118864315095794,0,0.7862796670005991
17,301,Control,0.0,0.25,0.02511886431509579,0,0.5044924390003871
17,302,Control,0.0,0.25,0.031622776601683784,1,0.6005618300005153
17,303,Equal,0.1,0.1,0.031622776601683784,1,0.4918528120006158
17,304,Control_null,0.0,0.25,0.01995262314968879,1,0.700335159000133
17,305,Equal_null,0.1,0.1,0.05011872336272722,1,0.6074925980001353
17,306,Decrease,0.25,0.1,0.02511886431509579,0,99
17,307,Control_null,0.0,0.25,0.015848931924611127,1,0.27572452500044164
17,308,Control,0.0,0.25,0.02511886431509579,1,0.5336192119993939
17,309,Control,0.0,0.25,0.01995262314968879,0,0.48091657900022255
17,310,Control,0.0,0.25,0.025118864315095794,1,0.5253714149994266
17,311,Increase,0.1,0.25,0.02511886431509579,0,0.33604839199961134
17,312,Increase_null,0.1,0.25,0.031622776601683784,1,0.41162939600053505
17,313,Equal,0.1,0.1,0.02511886431509579,0,0.6733441360001962
17,314,Control,0.0,0.25,0.01995262314968879,0,0.42130995899970003
17,315,Equal,0.25,0.25,0.02511886431509579,0,0.438302474000011
17,316,Control_null,0.0,0.1,0.031622776601683784,1,0.6883442790003755
17,317,Increase,0.1,0.25,0.031622776601683784,0,0.657620479999423
17,318,Control,0.0,0.1,0.01995262314968879,0,0.4439293820005332
17,319,Increase,0.1,0.25,0.03981071705534971,1,0.4051692749999347
17,320,Decrease,0.25,0.1,0.031622776601683784,0,99
17,321,Control,0.0,0.25,0.025118864315095794,0,0.3139076750003369
17,322,Equal,0.1,0.1,0.031622776601683784,1,0.5971584819999407
17,323,Decrease,0.25,0.1,0.03981071705534971,1,0.5523050470001181
17,324,Control,0.0,0.25,0.031622776601683784,1,0.49994086700007756
17,325,Equal,0.1,0.1,0.02511886431509579,1,0.49642057999972167
17,326,Equal,0.25,0.25,0.031622776601683784,1,0.5485705629998847
17,327,Control,0.0,0.25,0.02511886431509579,0,0.3127152679999199
17,328,Equal,0.25,0.25,0.02511886431509579,1,0.6096107579996897
17,329,Control,0.0,0.1,0.025118864315095794,0,0.5408070369994675
17,330,Increase,0.1,0.25,0.031622776601683784,1,0.6460026929999003
17,331,Increase,0.1,0.25,0.02511886431509579,0,0.23303455699988262
17,332,Decrease,0.25,0.1,0.031622776601683784,0,99
17,333,Increase,0.1,0.25,0.031622776601683784,0,0.4362603540002965
17,334,Equal,0.1,0.1,0.01995262314968879,0,0.5918348390005121
17,335,Equal,0.25,0.25,0.01995262314968879,0,0.8750346369997715
17,336,Equal,0.1,0.1,0.025118864315095794,1,0.49493563900068693
17,337,Control,0.0,0.1,0.031622776601683784,1,0.7383596750005381
17,338,Control,0.0,0.1,0.02511886431509579,0,0.4297896830003083
17,339,Control,0.0,0.1,0.031622776601683784,1,0.41885592400012683
17,340,Equal,0.1,0.1,0.01995262314968879,1,0.607238753999809
17,341,Decrease_null,0.25,0.1,0.06309573444801932,1,0.5600498069998139
17,342,Control,0.0,0.25,0.031622776601683784,1,0.37910052299957897
17,343,Control,0.0,0.25,0.02511886431509579,0,0.9484081270002207
17,344,Control,0.0,0.1,0.02511886431509579,1,0.5435902539993549
17,345,Control,0.0,0.1,0.01995262314968879,1,0.7677722409998751
17,346,Decrease,0.25,0.1,0.03981071705534971,1,0.5311045540001942
17,347,Control,0.0,0.1,0.015848931924611127,1,0.839260478000142
17,348,Control_null,0.0,0.25,0.012589254117941666,1,0.4662027180002042
17,349,Equal,0.25,0.25,0.025118864315095794,1,0.629528573999778
17,350,Increase,0.1,0.25,0.03981071705534971,1,0.4967063039994173
17,351,Control,0.0,0.25,0.031622776601683784,1,0.46849129400015954
17,352,Equal,0.25,0.25,0.01995262314968879,0,0.488497911000195
17,353,Control,0.0,0.1,0.012589254117941666,0,0.4135428959998535
17,354,Equal,0.1,0.1,0.015848931924611127,0,0.670484143000067
17,355,Equal_null,0.25,0.25,0.00794328234724281,1,0.5775936270001694
17,356,Control,0.0,0.25,0.02511886431509579,0,0.41811293400041905
17,357,Equal,0.25,0.25,0.025118864315095794,0,0.48496563999924547
17,358,Control_null,0.0,0.1,0.02511886431509579,1,0.7579923990006137
17,359,Control,0.0,0.25,0.031622776601683784,0,0.48125392099973396
17,360,Increase_null,0.1,0.25,0.02511886431509579,1,0.2859204789992873
17,361,Control,0.0,0.1,0.015848931924611127,0,0.1291654609995021
17,362,Decrease,0.25,0.1,0.031622776601683784,0,0.24385280600017722
17,363,Control,0.0,0.25,0.03981071705534971,1,0.5834331279993421
17,364,Control,0.0,0.1,0.01995262314968879,0,0.38670304199968086
17,365,Equal_null,0.25,0.25,0.0063095734448019285,1,0.4461576100002276
17,366,Decrease,0.25,0.1,0.03981071705534971,1,0.5460363540005346
17,367,Control,0.0,0.1,0.025118864315095794,0,0.48853600499933236
17,368,Increase,0.1,0.25,0.031622776601683784,0,0.599375560000226
17,369,Control,0.0,0.1,0.031622776601683784,1,0.5303119740001421
17,370,Control,0.0,0.1,0.02511886431509579,0,0.4346603080002751
17,371,Increase,0.1,0.25,0.03981071705534971,1,0.46185685000000376
17,372,Control,0.0,0.1,0.031622776601683784,1,0.39074093799990806
17,373,Equal,0.1,0.1,0.01995262314968879,0,0.5632301450004888
17,374,Increase,0.1,0.25,0.031622776601683784,1,0.42243679399962275
17,375,Equal,0.1,0.1,0.025118864315095794,1,0.6978521099999853
17,376,Control,0.0,0.1,0.02511886431509579,0,0.3327280809999138
17,377,Decrease,0.25,0.1,0.031622776601683784,1,0.7436130460000641
17,378,Equal,0.25,0.25,0.031622776601683784,1,0.7152467229998365
17,379,Equal,0.1,0.1,0.01995262314968879,0,0.3753453459994489
17,380,Decrease,0.25,0.1,0.02511886431509579,0,0.3445493320004971
17,381,Equal_null,0.25,0.25,0.005011872336272719,1,0.5155684179999298
17,382,Control,0.0,0.25,0.031622776601683784,0,0.5027819349998026
17,383,Equal,0.25,0.25,0.02511886431509579,1,0.496083414000168
17,384,Control_null,0.0,0.25,0.009999999999999995,1,0.22713727900008962
17,385,Control,0.0,0.1,0.031622776601683784,1,0.41236534800009395
17,386,Decrease,0.25,0.1,0.031622776601683784,1,0.5277566039994781
17,387,Increase,0.1,0.25,0.02511886431509579,1,0.4751728330002152
17,388,Control,0.0,0.25,0.03981071705534971,1,0.44694115000038437
17,389,Control,0.0,0.25,0.031622776601683784,0,0.43329016200004844
17,390,Equal,0.25,0.25,0.01995262314968879,0,0.3804835119999552
17,391,Equal,0.1,0.1,0.025118864315095794,1,0.5675998229999095
17,392,Control,0.0,0.1,0.02511886431509579,1,0.41154195299986895
17,393,Increase,0.1,0.25,0.01995262314968879,0,0.372048070999881
17,394,Increase,0.1,0.25,0.025118864315095794,0,99
17,395,Decrease,0.25,0.1,0.02511886431509579,1,0.3872506460002114
17,396,Control,0.0,0.1,0.01995262314968879,0,0.4915576419998615
17,397,Increase,0.1,0.25,0.031622776601683784,0,0.5187941490003141
17,398,Control_null,0.0,0.1,0.01995262314968879,1,0.5928953329994329
17,399,Control,0.0,0.25,0.03981071705534971,1,0.4998067880005692
17,400,Equal,0.25,0.25,0.025118864315095794,0,0.20691866600009234
17,401,Control,0.0,0.25,0.031622776601683784,1,0.4504041789996336
17,402,Control_null,0.0,0.25,0.00794328234724281,1,0.3905516139993779
17,403,Control,0.0,0.25,0.02511886431509579,0,0.4505937379999523
17,404,Equal,0.25,0.25,0.031622776601683784,0,0.4539921800005686
17,405,Control,0.0,0.25,0.031622776601683784,1,0.4491153299995858
17,406,Decrease,0.25,0.1,0.01995262314968879,1,0.3945244120004645
17,407,Decrease,0.25,0.1,0.015848931924611127,0,0.49356691600041813
17,408,Control,0.0,0.1,0.025118864315095794,1,0.5289004289998047
17,409,Control,0.0,0.1,0.01995262314968879,0,0.8569859079998423
17,410,Decrease,0.25,0.1,0.01995262314968879,0,0.500473754000268
17,411,Equal,0.25,0.25,0.03981071705534971,1,0.44628612199994677
17,412,Control,0.0,0.1,0.025118864315095794,1,0.51460758399935
17,413,Equal,0.1,0.1,0.01995262314968879,0,0.3815735580001274
17,414,Decrease_null,0.25,0.1,0.05011872336272722,1,0.4480043140001726
17,415,Equal,0.25,0.25,0.031622776601683784,0,0.5734446460000981
17,416,Increase,0.1,0.25,0.03981071705534971,1,0.5523108239995054
17,417,Equal,0.1,0.1,0.025118864315095794,1,0.41160572900025727
17,418,Equal,0.1,0.1,0.01995262314968879,0,0.47066596999957255
17,419,Control,0.0,0.1,0.01995262314968879,0,0.43078893600068113
17,420,Control,0.0,0.1,0.025118864315095794,1,0.4810584580000068
17,421,Decrease,0.25,0.1,0.025118864315095794,0,0.4763721389999773
17,422,Equal,0.25,0.25,0.03981071705534971,1,0.5335361400002512
17,423,Equal,0.25,0.25,0.031622776601683784,1,0.3285240969998995
17,424,Equal,0.25,0.25,0.02511886431509579,0,0.7706674099999873
17,425,Control,0.0,0.1,0.01995262314968879,0,0.45381822299987107
17,426,Control,0.0,0.25,0.02511886431509579,0,1.0889792329999182
17,427,Equal,0.1,0.1,0.025118864315095794,0,0.38820214600036707
17,428,Control,0.0,0.1,0.025118864315095794,0,0.4173028779996457
17,429,Decrease,0.25,0.1,0.031622776601683784,1,0.4073532130005333
17,430,Decrease,0.25,0.1,0.02511886431509579,0,0.20029108699964127
17,431,Increase,0.1,0.25,0.031622776601683784,0,0.41208734100018773
17,432,Decrease,0.25,0.1,0.031622776601683784,1,0.5881307130002824
17,433,Increase,0.1,0.25,0.03981071705534971,1,0.41527979799957393
17,434,Increase,0.1,0.25,0.031622776601683784,1,0.4355381140003374
17,435,Decrease,0.25,0.1,0.02511886431509579,0,0.3957223219995285
17,436,Equal,0.25,0.25,0.031622776601683784,0,0.6390359930001068
17,437,Increase_null,0.1,0.25,0.01995262314968879,1,0.46525560900045093
17,438,Control,0.0,0.1,0.031622776601683784,1,0.4601964470002713
17,439,Equal,0.1,0.1,0.031622776601683784,0,0.6076030699996409
17,440,Equal,0.25,0.25,0.03981071705534971,1,0.41986774900033197
17,441,Control,0.0,0.25,0.031622776601683784,1,0.5376003139999739
17,442,Equal,0.1,0.1,0.03981071705534971,1,0.6372304400001667
17,443,Decrease,0.25,0.1,0.031622776601683784,0,0.4783300290000625
17,444,Increase_null,0.1,0.25,0.015848931924611127,1,0.4652902190000532
17,445,Control,0.0,0.1,0.02511886431509579,0,0.7376133560001108
17,446,Increase,0.1,0.25,0.02511886431509579,0,0.789812738999899
17,447,Decrease,0.25,0.1,0.03981071705534971,1,0.39318706799986103
17,448,Decrease,0.25,0.1,0.031622776601683784,1,0.5612831749995166
17,449,Equal,0.25,0.25,0.031622776601683784,0,0.5885944989995551
17,450,Decrease,0.25,0.1,0.02511886431509579,0,99
17,451,Increase,0.1,0.25,0.031622776601683784,1,0.5785921789993154
17,452,Equal,0.25,0.25,0.03981071705534971,1,0.43769122999947285
17,453,Increase,0.1,0.25,0.02511886431509579,1,0.8092992109995976
17,454,Control,0.0,0.1,0.031622776601683784,0,0.5024908790001064
17,455,Control,0.0,0.25,0.02511886431509579,1,0.47594476799986296
17,456,Decrease,0.25,0.1,0.031622776601683784,1,0.4525666440003988
17,457,Control,0.0,0.1,0.03981071705534971,1,0.4000461160003397
17,458,Equal,0.25,0.25,0.031622776601683784,0,0.6010050400000182
17,459,Control,0.0,0.1,0.031622776601683784,1,0.9003392390004592
17,460,Control,0.0,0.1,0.02511886431509579,1,0.5354273510001804
17,461,Increase,0.1,0.25,0.01995262314968879,0,0.5758161920002749
17,462,Control,0.0,0.25,0.01995262314968879,0,0.7071238469998207
17,463,Equal,0.1,0.1,0.031622776601683784,1,0.5979091740000513
17,464,Decrease_null,0.25,0.1,0.03981071705534971,1,0.5053230789999361
17,465,Control,0.0,0.1,0.01995262314968879,0,0.8920991430004506
17,466,Equal,0.1,0.1,0.02511886431509579,1,0.5275495820005744
17,467,Decrease,0.25,0.1,0.02511886431509579,0,0.4280246289999923
17,468,Control,0.0,0.1,0.025118864315095794,0,0.3200273950005794
17,469,Decrease_null,0.25,0.1,0.031622776601683784,1,0.43427790599980653
17,470,Control,0.0,0.1,0.031622776601683784,0,0.4372937019998062
17,471,Control,0.0,0.25,0.025118864315095794,0,0.38929880499927094
17,472,Equal,0.1,0.1,0.01995262314968879,1,0.4564372539998658
17,473,Control,0.0,0.25,0.031622776601683784,1,0.4097974359992804
17,474,Increase,0.1,0.25,0.025118864315095794,1,0.5329904190002708
17,475,Equal,0.1,0.1,0.015848931924611127,0,0.424258813999586
17,476,Equal,0.1,0.1,0.01995262314968879,0,0.42743241600055626
17,477,Decrease,0.25,0.1,0.031622776601683784,1,0.48677176699948177
17,478,Decrease,0.25,0.1,0.02511886431509579,1,0.39379412699963723
17,479,Decrease,0.25,0.1,0.01995262314968879,0,0.5570940529996733
17,480,Increase,0.1,0.25,0.01995262314968879,0,0.40442267799971887
17,481,Equal,0.25,0.25,0.03981071705534971,0,0.1282371779998357
17,482,Increase,0.1,0.25,0.025118864315095794,0,0.5634323269996457
17,483,Equal,0.1,0.1,0.025118864315095794,1,0.47231466400080535
17,484,Decrease,0.25,0.1,0.025118864315095794,0,0.43690595900079643
17,485,Equal,0.1,0.1,0.01995262314968879,0,0.4930133879997811
17,486,Equal,0.1,0.1,0.025118864315095794,0,0.4801626609996674
17,487,Increase,0.1,0.25,0.031622776601683784,0,0.4414300179996644
17,488,Equal,0.25,0.25,0.05011872336272721,1,0.5167218540000249
17,489,Decrease,0.25,0.1,0.031622776601683784,1,0.44587446700006694
17,490,Control,0.0,0.25,0.02511886431509579,0,0.41692935100036266
17,491,Increase,0.1,0.25,0.03981071705534971,1,0.42774008299966226
17,492,Decrease,0.25,0.1,0.02511886431509579,0,0.5752749960001893
17,493,Control_null,0.0,0.1,0.015848931924611127,1,0.4263945109996712
17,494,Increase,0.1,0.25,0.031622776601683784,0,0.6457627479994699
17,495,Decrease_null,0.25,0.1,0.02511886431509579,1,0.4330664250001064
17,496,Control,0.0,0.25,0.031622776601683784,1,0.5335524860001897
17,497,Equal,0.25,0.25,0.03981071705534971,1,0.5703998419994605
17,498,Equal,0.1,0.1,0.031622776601683784,1,0.49842129400076374
17,499,Control,0.0,0.25,0.02511886431509579,1,0.5577365879998979
17,500,Increase_null,0.1,0.25,0.012589254117941666,1,0.2137800040000002
17,501,Decrease_null,0.25,0.1,0.01995262314968879,1,0.4261235089998081
17,502,Equal,0.25,0.25,0.031622776601683784,0,0.4272756999998819
17,503,Control,0.0,0.1,0.03981071705534971,1,0.510429261000354
17,504,Increase,0.1,0.25,0.03981071705534971,0,0.4575942330002363
17,505,Equal,0.25,0.25,0.03981071705534971,1,0.4933232430003045
17,506,Increase,0.1,0.25,0.05011872336272721,1,0.5037467100000868
17,507,Control,0.0,0.1,0.031622776601683784,1,0.4350144019999789
17,508,Control,0.0,0.25,0.01995262314968879,0,0.8223871480004163
17,509,Control,0.0,0.1,0.02511886431509579,0,0.37844765499994537
17,510,Equal_null,0.1,0.1,0.03981071705534971,1,0.41568804500002443
17,511,Decrease_null,0.25,0.1,0.015848931924611127,1,0.3279687680005736
17,512,Control,0.0,0.25,0.025118864315095794,0,0.37917755900070915
17,513,Increase,0.1,0.25,0.03981071705534971,1,0.33925870999973995
17,514,Decrease,0.25,0.1,0.031622776601683784,1,0.37466142599987506
17,515,Control,0.0,0.25,0.031622776601683784,1,0.44755449800049973
17,516,Increase,0.1,0.25,0.031622776601683784,1,0.41889813099987805
17,517,Equal,0.1,0.1,0.02511886431509579,0,0.5899192209999455
17,518,Increase_null,0.1,0.25,0.009999999999999995,1,0.6731077389995335
17,519,Equal,0.1,0.1,0.031622776601683784,1,0.41220496599999024
17,520,Decrease,0.25,0.1,0.02511886431509579,0,0.5035519590001059
17,521,Control,0.0,0.25,0.02511886431509579,0,0.45981399300035264
17,522,Increase,0.1,0.25,0.02511886431509579,1,0.4723434549996455
17,523,Control,0.0,0.1,0.031622776601683784,1,0.796771821999755
17,524,Decrease,0.25,0.1,0.031622776601683784,0,0.5961165469998377
17,525,Equal,0.1,0.1,0.02511886431509579,0,0.37520369599951664
17,526,Equal,0.25,0.25,0.031622776601683784,1,0.49668612200002826
17,527,Control,0.0,0.1,0.02511886431509579,0,0.6038385040001231
17,528,Equal,0.1,0.1,0.031622776601683784,1,0.42117694899934577
17,529,Control,0.0,0.25,0.031622776601683784,1,0.54426654100007
17,530,Decrease,0.25,0.1,0.03981071705534971,0,0.6435335920004945
17,531,Increase,0.1,0.25,0.01995262314968879,0,0.48636672900011035
17,532,Increase,0.1,0.25,0.025118864315095794,0,0.46604464699976234
17,533,Decrease_null,0.25,0.1,0.012589254117941666,1,0.4531095299998924
17,534,Increase_null,0.1,0.25,0.00794328234724281,1,0.3771933159996479
17,535,Control,0.0,0.25,0.02511886431509579,0,0.4047642650002672
17,536,Control,0.0,0.25,0.031622776601683784,1,0.4796372540004086
17,537,Control,0.0,0.1,0.031622776601683784,0,0.23965197100005753
17,538,Control,0.0,0.25,0.02511886431509579,0,0.22658816200055298
17,539,Decrease,0.25,0.1,0.05011872336272721,0,0.04304897899964999
17,540,Decrease,0.25,0.1,0.0630957344480193,1,0.5114340529999026
17,541,Increase,0.1,0.25,0.031622776601683784,1,0.5284020879998934
17,542,Increase,0.1,0.25,0.02511886431509579,0,0.9245605339992835
17,543,Control,0.0,0.1,0.03981071705534971,1,0.7838134650000939
17,544,Equal,0.25,0.25,0.02511886431509579,0,0.6431866249995437
17,545,Increase,0.1,0.25,0.031622776601683784,1,0.6380489140001373
17,546,Equal,0.1,0.1,0.02511886431509579,0,0.46546741200018005
17,547,Control,0.0,0.1,0.031622776601683784,0,0.5565860509996128
17,548,Control,0.0,0.1,0.03981071705534971,1,0.4399199760000556
17,549,Equal,0.1,0.1,0.031622776601683784,0,0.4599604109998836
17,550,Control,0.0,0.1,0.031622776601683784,0,0.45244469299996126
17,551,Decrease_null,0.25,0.1,0.009999999999999995,1,0.39927993699984654
17,552,Equal,0.1,0.1,0.03981071705534971,1,0.45662132000052225
17,553,Control,0.0,0.25,0.031622776601683784,1,0.3158018019994415
17,554,Increase,0.1,0.25,0.02511886431509579,0,0.4619705349996366
17,555,Increase,0.1,0.25,0.031622776601683784,1,0.42489397800000006
17,556,Equal,0.25,0.25,0.031622776601683784,1,0.40422565399967425
17,557,Equal,0.25,0.25,0.02511886431509579,0,0.5194991789994674
17,558,Equal,0.25,0.25,0.031622776601683784,0,0.36423764699975436
17,559,Increase,0.1,0.25,0.02511886431509579,0,0.4229793310005334
17,560,Decrease,0.25,0.1,0.050118723362727206,1,0.5791715080003996
17,561,Control,0.0,0.25,0.02511886431509579,0,0.5410659259996464
17,562,Increase_null,0.1,0.25,0.0063095734448019285,1,0.5364660779996484
17,563,Equal,0.1,0.1,0.031622776601683784,0,0.4405565179995392
17,564,Decrease,0.25,0.1,0.039810717055349706,1,0.4758588049999162
17,565,Control,0.0,0.1,0.03981071705534971,1,0.9729297750000114
17,566,Decrease,0.25,0.1,0.03162277660168378,1,0.7522597289998885
17,567,Control,0.0,0.1,0.031622776601683784,0,0.5624800870000399
17,568,Control,0.0,0.25,0.031622776601683784,1,0.5803147589995206
17,569,Control_null,0.0,0.1,0.012589254117941666,1,0.4237652049996541
17,570,Decrease,0.25,0.1,0.025118864315095787,0,0.5390418130000398
17,571,Increase,0.1,0.25,0.031622776601683784,0,0.5284516769997936
17,572,Decrease,0.25,0.1,0.03162277660168378,1,0.4765979609992428
17,573,Increase,0.1,0.25,0.03981071705534971,1,0.4714376829997491
17,574,Control,0.0,0.25,0.02511886431509579,0,0.4816156340002635
17,575,Control,0.0,0.25,0.031622776601683784,1,0.4688424589994611
17,576,Equal,0.25,0.25,0.03981071705534971,1,0.4459371180000744
17,577,Equal,0.1,0.1,0.03981071705534971,1,0.8729196499998579
17,578,Equal,0.1,0.1,0.031622776601683784,1,0.5772897770002601
17,579,Equal,0.1,0.1,0.02511886431509579,0,0.40457285000047705
17,580,Equal,0.1,0.1,0.031622776601683784,1,0.42379808199984836
17,581,Increase,0.1,0.25,0.031622776601683784,1,0.4829048879992115
17,582,Control,0.0,0.25,0.02511886431509579,0,0.5982251509994967
17,583,Decrease,0.25,0.1,0.025118864315095787,0,0.7453359520004597
17,584,Control,0.0,0.1,0.03981071705534971,1,0.47716648100049497
17,585,Decrease,0.25,0.1,0.03162277660168378,1,0.5545604230001118
17,586,Control,0.0,0.1,0.031622776601683784,1,0.41634458000044106
17,587,Equal,0.1,0.1,0.02511886431509579,0,0.504078359000232
17,588,Decrease,0.25,0.1,0.025118864315095787,0,0.3791954190000979
17,589,Equal,0.1,0.1,0.031622776601683784,1,0.45249549100026343
17,590,Increase,0.1,0.25,0.02511886431509579,1,0.5996259439998539
17,591,Equal,0.25,0.25,0.031622776601683784,1,0.5116875509993406
17,592,Increase,0.1,0.25,0.01995262314968879,0,0.4750324130000081
17,593,Equal,0.25,0.25,0.02511886431509579,0,0.4377845850003723
17,594,Equal,0.25,0.25,0.031622776601683784,0,0.5611322129998371
17,595,Control,0.0,0.25,0.031622776601683784,0,0.42831885400028114
17,596,Increase,0.1,0.25,0.025118864315095794,0,0.5276940540006763
17,597,Control,0.0,0.25,0.03981071705534971,1,0.5885801040003571
17,598,Increase,0.1,0.25,0.031622776601683784,0,0.5771403449998616
17,599,Control,0.0,0.25,0.031622776601683784,1,0.5903795379999792
17,600,Control,0.0,0.25,0.02511886431509579,0,0.3274733579992244
17,601,Decrease,0.25,0.1,0.03162277660168378,1,0.46508876999996573
17,602,Control,0.0,0.25,0.031622776601683784,1,0.47726843700002064
17,603,Control,0.0,0.25,0.02511886431509579,1,0.47255251800015685
17,604,Equal,0.1,0.1,0.02511886431509579,0,0.4009364839994305
17,605,Control,0.0,0.1,0.02511886431509579,0,0.4280997670002762
17,606,Control,0.0,0.1,0.031622776601683784,1,0.40516058699995483
17,607,Equal,0.25,0.25,0.03981071705534971,1,0.5039680979998593
17,608,Control,0.0,0.1,0.02511886431509579,0,0.4355966860002809
17,609,Control,0.0,0.25,0.01995262314968879,0,0.4066078000005291
17,610,Control,0.0,0.1,0.031622776601683784,0,0.39382076900074026
17,611,Equal,0.1,0.1,0.031622776601683784,1,0.4220611740001914
17,612,Increase_null,0.1,0.25,0.005011872336272719,1,0.3625250989998676
17,613,Control,0.0,0.1,0.03981071705534971,1,0.4309297780000634
17,614,Increase,0.1,0.25,0.03981071705534971,1,0.3686959249998836
17,615,Control,0.0,0.1,0.031622776601683784,1,0.4437415490001513
17,616,Equal,0.1,0.1,0.02511886431509579,0,0.41472225000052276
17,617,Control,0.0,0.25,0.025118864315095794,0,0.43100835800032655
17,618,Increase,0.1,0.25,0.031622776601683784,0,0.8025461360002737
17,619,Equal,0.25,0.25,0.031622776601683784,1,0.40245517099992867
17,620,Equal,0.1,0.1,0.031622776601683784,1,0.46984554799928446
17,621,Increase,0.1,0.25,0.03981071705534971,1,0.3770714649999718
17,622,Equal,0.25,0.25,0.02511886431509579,0,0.4596232959993358
17,623,Increase,0.1,0.25,0.031622776601683784,0,0.44725765099974524
17,624,Decrease_null,0.25,0.1,0.00794328234724281,1,0.5385371900001701
17,625,Control,0.0,0.25,0.031622776601683784,1,0.51083416199981
17,626,Decrease,0.25,0.1,0.025118864315095787,0,0.4835131440004261
17,627,Equal,0.1,0.1,0.02511886431509579,1,0.4689941110000291
17,628,Control,0.0,0.1,0.02511886431509579,0,0.5760554500002399
17,629,Decrease,0.25,0.1,0.03162277660168378,1,0.6092988259997583
17,630,Equal,0.25,0.25,0.031622776601683784,1,0.732268607000151
17,631,Increase,0.1,0.25,0.03981071705534971,1,0.4318372450006791
17,632,Control,0.0,0.25,0.02511886431509579,0,0.49705078699935257
17,633,Equal,0.25,0.25,0.02511886431509579,0,0.4520989530001316
17,634,Control,0.0,0.1,0.031622776601683784,1,0.47129180200045084
17,635,Decrease,0.25,0.1,0.025118864315095787,0,0.778184083999804
17,636,Increase,0.1,0.25,0.031622776601683784,0,0.5737649189995864
17,637,Increase,0.1,0.25,0.03981071705534971,1,0.5219848720007576
17,638,Equal,0.25,0.25,0.031622776601683784,1,0.5504505250000875
17,639,Decrease,0.25,0.1,0.03162277660168378,1,0.466721091999716
17,640,Control,0.0,0.25,0.031622776601683784,0,0.37146569800006546
17,641,Equal_null,0.1,0.1,0.031622776601683784,1,0.39871652300007554
17,642,Control_null,0.0,0.1,0.009999999999999995,1,0.4238460489996214
17,643,Decrease,0.25,0.1,0.025118864315095787,0,0.37901031199999125
17,644,Equal,0.25,0.25,0.02511886431509579,0,0.4222951439996905
17,645,Decrease,0.25,0.1,0.03162277660168378,0,0.46354928700020537
17,646,Equal,0.1,0.1,0.01995262314968879,1,0.602502695000112
17,647,Control_null,0.0,0.1,0.00794328234724281,1,0.3653974859998925
17,648,Control,0.0,0.25,0.03981071705534971,1,0.4420143420002205
17,649,Equal,0.25,0.25,0.031622776601683784,0,0.3571091020003223
17,650,Control,0.0,0.1,0.02511886431509579,0,0.45630259399968054
17,651,Control,0.0,0.1,0.031622776601683784,0,0.5571870469993883
17,652,Equal,0.25,0.25,0.03981071705534971,1,0.3369026959999246
17,653,Increase,0.1,0.25,0.031622776601683784,0,0.3698840189999828
17,654,Equal,0.25,0.25,0.031622776601683784,1,0.5812915120004618
17,655,Control,0.0,0.1,0.03981071705534971,1,0.3414757289992849
17,656,Control,0.0,0.1,0.031622776601683784,0,99
17,657,Decrease,0.25,0.1,0.039810717055349706,1,0.49962924999999814
17,658,Equal,0.1,0.1,0.015848931924611127,0,0.4299295729997539
17,659,Equal,0.25,0.25,0.02511886431509579,0,0.45703948299978947
17,660,Control,0.0,0.25,0.031622776601683784,0,0.35643459199945937
17,661,Control,0.0,0.1,0.03981071705534971,1,0.495347111999763
17,662,Increase,0.1,0.25,0.03981071705534971,1,0.45019324499935465
17,663,Equal,0.1,0.1,0.01995262314968879,0,0.45379612899978383
17,664,Equal,0.25,0.25,0.031622776601683784,1,0.4810581760002606
17,665,Equal_null,0.1,0.1,0.02511886431509579,1,0.41471771099986654
17,666,Decrease_null,0.25,0.1,0.0063095734448019285,1,0.3581990059992677
17,667,Decrease,0.25,0.1,0.03162277660168378,0,0.6254113539998798
17,668,Control,0.0,0.1,0.031622776601683784,1,0.4174514599999384
17,669,Equal,0.1,0.1,0.025118864315095794,0,0.46100812400072755
17,670,Control,0.0,0.1,0.02511886431509579,0,0.4802023439997356
17,671,Increase,0.1,0.25,0.031622776601683784,0,0.6331197720001001
17,672,Control_null,0.0,0.1,0.0063095734448019285,1,0.38046301099984703
17,673,Decrease,0.25,0.1,0.039810717055349706,1,0.568497271000524
17,674,Decrease_null,0.25,0.1,0.005011872336272719,1,0.6437986680002723
17,675,Decrease,0.25,0.1,0.03162277660168378,1,0.6231031560000702
17,676,Control,0.0,0.25,0.03981071705534971,1,0.4910929540001234
17,677,Increase,0.1,0.25,0.03981071705534971,1,0.4044616209994274
17,678,Control_null,0.0,0.1,0.005011872336272719,1,0.48203959700003907
17,679,Equal,0.25,0.25,0.02511886431509579,0,0.3525388810003278
17,680,Decrease,0.25,0.1,0.025118864315095787,0,0.3239027299996451
17,681,Equal_null,0.1,0.1,0.01995262314968879,1,0.4924344969995218
17,682,Control,0.0,0.1,0.031622776601683784,0,0.49616089400024066
17,683,Control,0.0,0.1,0.03981071705534971,1,0.4273981789992831
17,684,Equal,0.25,0.25,0.031622776601683784,1,0.44545499099967856
17,685,Control,0.0,0.25,0.031622776601683784,1,0.3930719379995935
17,686,Increase,0.1,0.25,0.031622776601683784,1,0.37214032399970165
17,687,Equal,0.25,0.25,0.02511886431509579,0,0.3832745729996532
17,688,Equal_null,0.1,0.1,0.015848931924611127,1,0.4045535169998402
17,689,Control,0.0,0.25,0.02511886431509579,1,0.6156725330001791
17,690,Equal,0.1,0.1,0.031622776601683784,1,0.6175087620003978
17,691,Equal_null,0.1,0.1,0.012589254117941666,1,0.4299669909996737
17,692,Equal,0.1,0.1,0.02511886431509579,0,0.45417423299932125
17,693,Equal,0.25,0.25,0.031622776601683784,1,0.3374634900001183
17,694,Equal,0.25,0.25,0.02511886431509579,0,0.3291995260005933
17,695,Decrease,0.25,0.1,0.03162277660168378,0,0.7017675619999864
17,696,Equal,0.25,0.25,0.031622776601683784,0,0.18506451600023865
17,697,Control,0.0,0.25,0.01995262314968879,0,0.6192472989996531
17,698,Control,0.0,0.1,0.031622776601683784,0,0.6622409840001637
17,699,Increase,0.1,0.25,0.02511886431509579,0,0.5535394979997363
17,700,Decrease,0.25,0.1,0.039810717055349706,1,0.46026639899992006
17,701,Decrease,0.25,0.1,0.03162277660168378,1,0.5069416220003404
17,702,Equal,0.25,0.25,0.03981071705534971,0,0.5274231639996287
17,703,Equal,0.1,0.1,0.031622776601683784,0,0.34440054800052167
17,704,Control,0.0,0.25,0.025118864315095794,0,0.5156637999998566
17,705,Control,0.0,0.25,0.031622776601683784,1,0.39559661299972504
17,706,Decrease,0.25,0.1,0.025118864315095787,0,0.37460595199991076
17,707,Equal,0.25,0.25,0.05011872336272721,0,0.6642141199999969
17,708,Equal,0.1,0.1,0.03981071705534971,1,0.5071345169999404
17,709,Increase,0.1,0.25,0.031622776601683784,0,0.5023217389998536
17,710,Equal,0.1,0.1,0.031622776601683784,1,0.5844070760003888
17,711,Equal,0.25,0.25,0.0630957344480193,1,0.45147187299971847
17,712,Control,0.0,0.25,0.02511886431509579,0,0.44696980899971095
17,713,Decrease,0.25,0.1,0.03162277660168378,1,0.49826896600006876
17,714,Decrease,0.25,0.1,0.025118864315095787,0,0.3758948929998951
17,715,Control,0.0,0.25,0.031622776601683784,1,0.46075550699970336
17,716,Equal,0.25,0.25,0.050118723362727206,1,0.8284575009993205
17,717,Equal,0.1,0.1,0.02511886431509579,0,0.5047307100003309
17,718,Control,0.0,0.1,0.03981071705534971,0,0.4878794310006924
17,719,Control,0.0,0.25,0.02511886431509579,0,0.37907582099978754
17,720,Increase,0.1,0.25,0.03981071705534971,1,0.5018425279995427
17,721,Increase,0.1,0.25,0.031622776601683784,0,0.3621851269999752
17,722,Equal_null,0.1,0.1,0.009999999999999995,1,0.35727099900032044
17,723,Control,0.0,0.1,0.05011872336272721,1,0.352585511000143
17,724,Equal,0.25,0.25,0.039810717055349706,1,0.44383304700022563
17,725,Control,0.0,0.25,0.031622776601683784,0,0.39897485700021207
17,726,Equal,0.1,0.1,0.031622776601683784,1,0.40991298999961145
17,727,Equal,0.25,0.25,0.03162277660168378,1,0.4063015040001119
17,728,Control,0.0,0.1,0.03981071705534971,1,0.30781774100069015
17,729,Control,0.0,0.25,0.03981071705534971,1,0.34859392999987904
17,730,Equal,0.25,0.25,0.025118864315095787,0,0.39188889199976984
17,731,Control,0.0,0.1,0.031622776601683784,0,0.512795336999261
17,732,Equal_null,0.1,0.1,0.00794328234724281,1,0.21199660300044343
17,733,Equal,0.1,0.1,0.02511886431509579,0,0.5324288100000558
17,734,Equal,0.1,0.1,0.031622776601683784,1,0.47929816200030473
17,735,Equal,0.1,0.1,0.02511886431509579,1,0.45029364800029725
17,736,Increase,0.1,0.25,0.03981071705534971,1,0.49365908399977343
17,737,Control,0.0,0.25,0.031622776601683784,1,0.49711407299946586
17,738,Equal,0.25,0.25,0.03162277660168378,1,0.5732698920000985
17,739,Control,0.0,0.1,0.03981071705534971,1,0.5205230609999489
17,740,Equal_null,0.1,0.1,0.0063095734448019285,1,0.42105251900011353
17,741,Equal,0.25,0.25,0.025118864315095787,0,0.5858272370005579
17,742,Control,0.0,0.25,0.02511886431509579,0,0.40295785299986164
17,743,Decrease,0.25,0.1,0.03162277660168378,0,0.41410312999960297
17,744,Increase,0.1,0.25,0.031622776601683784,1,0.5424406039992391
17,745,Increase,0.1,0.25,0.02511886431509579,1,0.37058432699996047
17,746,Control,0.0,0.1,0.031622776601683784,0,0.45886659900043014
17,747,Control,0.0,0.1,0.03981071705534971,1,0.4297860250007943
17,748,Equal_null,0.1,0.1,0.005011872336272719,1,0.5610980149995157
17,749,Control,0.0,0.1,0.031622776601683784,1,0.4284118410005249
17,750,Increase,0.1,0.25,0.01995262314968879,1,0.744584207999651
17,751,Equal,0.25,0.25,0.03162277660168378,1,0.40380396699947596
17,752,Increase,0.1,0.25,0.015848931924611127,0,0.3269433610003034
17,753,Equal,0.1,0.1,0.01995262314968879,0,0.4277258090005489
17,754,Equal,0.25,0.25,0.025118864315095787,1,0.3923162399996727
17,755,Control,0.0,0.25,0.031622776601683784,1,0.41744425900014903
17,756,Decrease,0.25,0.1,0.039810717055349706,1,0.3164659349995418
17,757,Equal,0.1,0.1,0.025118864315095794,1,0.4367466970006717
17,758,Equal,0.25,0.25,0.019952623149688785,0,0.3052755779999643
17,759,Control,0.0,0.1,0.02511886431509579,0,0.35321372199996404
17,760,Equal,0.25,0.25,0.025118864315095787,1,0.33326872599991475
17,761,Decrease,0.25,0.1,0.03162277660168378,0,99
17,762,Decrease,0.25,0.1,0.039810717055349706,1,0.4256555300007676
17,763,Decrease,0.25,0.1,0.03162277660168378,0,0.4540493759996025
17,764,Control,0.0,0.1,0.031622776601683784,1,0.44123550899985275
17,765,Increase,0.1,0.25,0.01995262314968879,0,0.3558331249996627
17,766,Decrease,0.25,0.1,0.039810717055349706,1,0.6330502030004936
17,767,Decrease,0.25,0.1,0.03162277660168378,0,0.7646776589999718
17,768,Equal,0.25,0.25,0.019952623149688785,0,0.38979962000030355
17,769,Equal,0.25,0.25,0.025118864315095787,1,0.617171600999427
17,770,Equal,0.1,0.1,0.01995262314968879,0,0.5294629159998294
17,771,Decrease,0.25,0.1,0.039810717055349706,1,0.38845789400056674
17,772,Increase,0.1,0.25,0.025118864315095794,1,0.5095935549998103
17,773,Decrease,0.25,0.1,0.03162277660168378,1,0.3606446950007012
17,774,Equal,0.1,0.1,0.025118864315095794,0,0.46008947900008934
17,775,Equal,0.1,0.1,0.031622776601683784,1,0.49524664299951837
17,776,Decrease,0.25,0.1,0.025118864315095787,1,0.4433853279997493
17,777,Equal,0.1,0.1,0.02511886431509579,0,0.33458316499945795
17,778,Control,0.0,0.25,0.02511886431509579,0,0.3777723639996111
17,779,Equal,0.1,0.1,0.031622776601683784,0,0.34229518200027087
17,780,Control,0.0,0.25,0.031622776601683784,0,0.5782564480005021
17,781,Increase,0.1,0.25,0.01995262314968879,0,0.43434870000055525
17,782,Decrease,0.25,0.1,0.019952623149688785,0,0.38954816600016784
17,783,Equal,0.25,0.25,0.019952623149688785,0,0.3985667889992328
17,784,Control,0.0,0.25,0.03981071705534971,1,0.3298409590006486
17,785,Control,0.0,0.1,0.02511886431509579,1,0.40307940900038375
17,786,Decrease,0.25,0.1,0.025118864315095787,0,0.37441991600007896
17,787,Control,0.0,0.25,0.031622776601683784,1,0.4253658349998659
17,788,Equal,0.25,0.25,0.025118864315095787,0,0.42025042600016604
17,789,Control,0.0,0.1,0.01995262314968879,0,0.47970321900083945
17,790,Increase,0.1,0.25,0.025118864315095794,0,0.3391203940000196
17,791,Equal,0.25,0.25,0.03162277660168378,1,0.4151016639998488
17,792,Increase,0.1,0.25,0.031622776601683784,0,0.35426552800072386
17,793,Control,0.0,0.25,0.02511886431509579,0,0.33589599000060844
17,794,Control,0.0,0.25,0.031622776601683784,1,0.4717607490001683
17,795,Equal,0.25,0.25,0.025118864315095787,0,0.39468388899967977
17,796,Increase,0.1,0.25,0.03981071705534971,1,0.43638688499959244
17,797,Equal,0.25,0.25,0.03162277660168378,1,0.4950882590001129
17,798,Increase,0.1,0.25,0.031622776601683784,1,0.6162391240004581
17,799,Control,0.0,0.25,0.02511886431509579,0,0.34877323700038687
17,800,Control,0.0,0.1,0.025118864315095794,1,0.3359351429999151
17,801,Equal,0.1,0.1,0.03981071705534971,1,0.5072002949991656
17,802,Equal,0.1,0.1,0.031622776601683784,0,0.5181063849995553
17,803,Decrease,0.25,0.1,0.03162277660168378,1,0.4585625509998863
17,804,Decrease,0.25,0.1,0.025118864315095787,1,0.7405314820007334
17,805,Control,0.0,0.1,0.01995262314968879,0,0.7049481710000691
17,806,Control,0.0,0.1,0.025118864315095794,0,0.4599548259993753
17,807,Control,0.0,0.1,0.031622776601683784,1,0.4217019489997256
17,808,Equal,0.1,0.1,0.03981071705534971,1,0.31223067099926993
17,809,Decrease,0.25,0.1,0.019952623149688785,1,0.4885165480000069
17,810,Equal,0.1,0.1,0.031622776601683784,1,0.26885198400032095
17,811,Control,0.0,0.25,0.031622776601683784,0,0.2058290089998991
17,812,Control,0.0,0.1,0.02511886431509579,1,0.42517136900005426
17,813,Control,0.0,0.25,0.03981071705534971,0,0.28415044999928796
17,814,Control,0.0,0.25,0.05011872336272721,1,0.4475822929998685
17,815,Control,0.0,0.1,0.01995262314968879,0,0.603364333999707
17,816,Equal,0.1,0.1,0.02511886431509579,0,0.4626222910001161
17,817,Equal,0.1,0.1,0.031622776601683784,0,0.49013578399990365
17,818,Control,0.0,0.1,0.025118864315095794,0,99
17,819,Control,0.0,0.1,0.031622776601683784,1,0.43327652100015257
17,820,Equal,0.1,0.1,0.03981071705534971,1,0.47254558700024063
17,821,Equal,0.1,0.1,0.031622776601683784,0,0.48484471200026746
17,822,Equal,0.1,0.1,0.03981071705534971,1,0.3957213869998668
17,823,Equal,0.1,0.1,0.031622776601683784,1,0.6950504670003284
17,824,Equal,0.1,0.1,0.02511886431509579,1,0.457418874000723
17,825,Equal,0.1,0.1,0.01995262314968879,1,0.35638686699985556
17,826,Equal,0.1,0.1,0.015848931924611127,0,0.38465349699981743
17,827,Equal,0.1,0.1,0.01995262314968879,0,0.419813903999966
17,828,Equal,0.1,0.1,0.025118864315095794,0,0.47117136500037304
17,829,Equal,0.1,0.1,0.031622776601683784,1,0.5169154709992654
17,830,Equal,0.1,0.1,0.02511886431509579,0,0.40628983799979324
17,831,Equal,0.1,0.1,0.031622776601683784,1,0.3776100390005013
17,832,Equal,0.1,0.1,0.02511886431509579,0,0.3898148590005803
17,833,Equal,0.1,0.1,0.031622776601683784,1,0.34219425300034345
17,834,Equal,0.1,0.1,0.02511886431509579,1,0.5050685559999692
17,835,Equal,0.1,0.1,0.01995262314968879,0,0.41028485400056525
17,836,Equal,0.1,0.1,0.025118864315095794,0,0.4614968500000032
17,837,Equal,0.1,0.1,0.031622776601683784,1,0.5036957749998692
17,838,Equal,0.1,0.1,0.02511886431509579,0,0.5309520860000703
17,839,Equal,0.1,0.1,0.031622776601683784,0,0.35819796299983864
