Participant_Number,Trial_Number,Condition,FC_distal,FC_proximal,Target_Contrast,Correct_Response,Reaction_Time
26,0,Equal,0.1,0.1,0.1,1,0.6283459690002928
26,1,Increase,0.1,0.25,0.1,1,0.632254546000695
26,2,Control,0.0,0.1,0.1,1,0.25912431700089655
26,3,Equal,0.25,0.25,0.1,1,0.646678654000425
26,4,Equal,0.1,0.1,0.07943282347242815,1,0.3058919760005665
26,5,Equal,0.25,0.25,0.07943282347242815,1,0.5970096420005575
26,6,Control_null,0.0,0.25,0.1,1,0.5534430259995133
26,7,Increase,0.1,0.25,0.07943282347242815,1,0.35087905600084923
26,8,Increase,0.1,0.25,0.06309573444801932,0,0.663623569000265
26,9,Control,0.0,0.25,0.1,1,0.5307830439996906
26,10,Control,0.0,0.25,0.07943282347242815,1,0.48321993200079305
26,11,Control,0.0,0.25,0.06309573444801932,1,0.29397597599927394
26,12,Equal,0.1,0.1,0.06309573444801932,1,0.4714244000006147
26,13,Control,0.0,0.1,0.07943282347242815,1,0.2188074300011067
26,14,Equal_null,0.25,0.25,0.1,1,0.6858133370005817
26,15,Increase,0.1,0.25,0.07943282347242814,1,0.5940753989998484
26,16,Increase_null,0.1,0.25,0.1,1,0.5973718449986336
26,17,Control,0.0,0.25,0.05011872336272722,1,0.46435249500063946
26,18,Control,0.0,0.1,0.06309573444801932,1,0.4835312260001956
26,19,Increase,0.1,0.25,0.06309573444801932,1,0.39962398699935875
26,20,Control,0.0,0.25,0.03981071705534971,1,0.4445850399988558
26,21,Increase,0.1,0.25,0.05011872336272722,1,0.461408148999908
26,22,Increase,0.1,0.25,0.03981071705534971,1,0.49618561699935526
26,23,Equal,0.25,0.25,0.06309573444801932,1,0.31232842600002186
26,24,Equal,0.1,0.1,0.05011872336272722,1,0.18746332500086282
26,25,Decrease,0.25,0.1,0.1,1,0.3725838370010024
26,26,Control,0.0,0.1,0.05011872336272722,1,0.4960592980005458
26,27,Equal,0.25,0.25,0.05011872336272722,1,0.44334731999879295
26,28,Equal,0.1,0.1,0.03981071705534971,1,0.2072945960007928
26,29,Control_null,0.0,0.25,0.07943282347242815,1,0.4826261149992206
26,30,Control,0.0,0.1,0.03981071705534971,1,0.5658972300007008
26,31,Equal_null,0.25,0.25,0.07943282347242815,1,0.6229990160009038
26,32,Equal,0.25,0.25,0.03981071705534971,1,0.2917773289991601
26,33,Control,0.0,0.25,0.031622776601683784,1,0.5755782469987025
26,34,Increase,0.1,0.25,0.031622776601683784,1,0.4796179179993487
26,35,Equal,0.25,0.25,0.031622776601683784,1,0.37073846500061336
26,36,Control,0.0,0.25,0.02511886431509579,1,0.4360778009995556
26,37,Increase,0.1,0.25,0.02511886431509579,1,0.43103878700094356
26,38,Control,0.0,0.25,0.01995262314968879,0,0.5123360439993121
26,39,Increase,0.1,0.25,0.01995262314968879,0,0.5392932159993507
26,40,Control,0.0,0.1,0.031622776601683784,1,0.5185513849992276
26,41,Control,0.0,0.25,0.025118864315095794,0,0.4907944160004263
26,42,Equal,0.1,0.1,0.031622776601683784,1,0.7820962490004604
26,43,Equal,0.25,0.25,0.02511886431509579,1,0.5052317319987196
26,44,Increase,0.1,0.25,0.025118864315095794,1,0.6284323600011703
26,45,Control,0.0,0.25,0.031622776601683784,0,0.6796756339990679
26,46,Increase,0.1,0.25,0.01995262314968879,0,0.5399047920000157
26,47,Control,0.0,0.25,0.03981071705534971,1,0.5570001380001486
26,48,Equal,0.25,0.25,0.01995262314968879,1,0.5920320209988859
26,49,Control_null,0.0,0.25,0.06309573444801932,1,0.5202270190002309
26,50,Equal,0.1,0.1,0.02511886431509579,0,0.4993622960009816
26,51,Control,0.0,0.1,0.02511886431509579,0,0.6696199010002601
26,52,Control_null,0.0,0.25,0.05011872336272722,1,0.6406795309994777
26,53,Equal,0.25,0.25,0.015848931924611127,0,0.4039620180010388
26,54,Equal,0.1,0.1,0.031622776601683784,0,0.5669530239993037
26,55,Decrease,0.25,0.1,0.07943282347242815,1,0.4662284610003553
26,56,Equal,0.1,0.1,0.03981071705534971,1,0.5506566390013177
26,57,Decrease,0.25,0.1,0.06309573444801932,1,0.2987744259989995
26,58,Equal_null,0.1,0.1,0.1,1,0.38226742499864486
26,59,Equal,0.25,0.25,0.01995262314968879,1,0.6011568280009669
26,60,Control_null,0.0,0.1,0.1,1,0.4815703299991583
26,61,Control,0.0,0.25,0.031622776601683784,1,0.4844369539987383
26,62,Control,0.0,0.25,0.02511886431509579,0,0.6444153280008322
26,63,Equal,0.1,0.1,0.031622776601683784,1,0.4479817789997469
26,64,Equal,0.25,0.25,0.015848931924611127,1,0.5382632130003913
26,65,Equal,0.25,0.25,0.012589254117941666,0,0.31706684999880963
26,66,Increase,0.1,0.25,0.025118864315095794,1,0.5853995309989841
26,67,Equal,0.1,0.1,0.02511886431509579,1,0.7966705209983047
26,68,Equal,0.25,0.25,0.015848931924611127,0,0.543888528000025
26,69,Increase,0.1,0.25,0.01995262314968879,0,0.7561578410004586
26,70,Equal,0.1,0.1,0.01995262314968879,0,0.6554880519997823
26,71,Equal,0.25,0.25,0.01995262314968879,0,0.5636476380004751
26,72,Equal_null,0.1,0.1,0.07943282347242815,1,0.5105296460005775
26,73,Equal,0.1,0.1,0.025118864315095794,1,0.7908777960001316
26,74,Equal,0.1,0.1,0.01995262314968879,0,0.1059524499996769
26,75,Equal,0.1,0.1,0.025118864315095794,0,0.38702260100035346
26,76,Equal,0.1,0.1,0.031622776601683784,1,0.4864398239988077
26,77,Decrease,0.25,0.1,0.05011872336272722,1,0.48858446899976116
26,78,Control,0.0,0.1,0.031622776601683784,1,0.4755987609987642
26,79,Control,0.0,0.1,0.02511886431509579,1,0.49495710500013956
26,80,Control,0.0,0.25,0.031622776601683784,1,0.401923387998977
26,81,Control,0.0,0.1,0.01995262314968879,0,0.6558254600004148
26,82,Decrease,0.25,0.1,0.03981071705534971,1,0.33867423300034716
26,83,Equal,0.1,0.1,0.02511886431509579,0,0.5257455370010575
26,84,Control,0.0,0.1,0.025118864315095794,1,0.6255898399995203
26,85,Equal,0.25,0.25,0.025118864315095794,1,0.49419566899996425
26,86,Equal,0.1,0.1,0.031622776601683784,0,0.24608485399949132
26,87,Equal,0.1,0.1,0.03981071705534971,1,0.38521077100085677
26,88,Equal,0.25,0.25,0.01995262314968879,1,0.44944826099890633
26,89,Equal,0.1,0.1,0.031622776601683784,0,0.22779803899902618
26,90,Equal,0.25,0.25,0.015848931924611127,1,0.6150415009997232
26,91,Equal,0.25,0.25,0.012589254117941666,0,0.6180099800003518
26,92,Decrease,0.25,0.1,0.031622776601683784,1,0.6691100040006859
26,93,Decrease,0.25,0.1,0.02511886431509579,0,1.0416445169994404
26,94,Control,0.0,0.25,0.02511886431509579,0,0.48607029500089993
26,95,Decrease_null,0.25,0.1,0.1,1,0.4339546869996411
26,96,Control,0.0,0.1,0.01995262314968879,0,0.8284384409998893
26,97,Equal,0.1,0.1,0.03981071705534971,1,0.3441109779996623
26,98,Control,0.0,0.1,0.025118864315095794,1,0.49139117000049737
26,99,Decrease,0.25,0.1,0.031622776601683784,1,0.5076380400005291
26,100,Equal,0.1,0.1,0.031622776601683784,1,0.566699171999062
26,101,Decrease,0.25,0.1,0.02511886431509579,0,0.4000189499984117
26,102,Increase_null,0.1,0.25,0.07943282347242815,1,0.45119247599905066
26,103,Equal,0.25,0.25,0.015848931924611127,0,0.6213327559999016
26,104,Control,0.0,0.1,0.01995262314968879,0,0.5605487089997041
26,105,Equal,0.1,0.1,0.02511886431509579,1,0.5006759659991076
26,106,Control,0.0,0.1,0.025118864315095794,0,0.6639843810007733
26,107,Control,0.0,0.1,0.031622776601683784,1,0.4444989399999031
26,108,Increase,0.1,0.25,0.025118864315095794,0,0.6088108910007577
26,109,Control,0.0,0.25,0.031622776601683784,1,0.507683525000175
26,110,Decrease,0.25,0.1,0.031622776601683784,1,0.49471127899960265
26,111,Control,0.0,0.1,0.02511886431509579,0,0.6100106379999488
26,112,Control,0.0,0.1,0.031622776601683784,1,0.5215971269990405
26,113,Increase,0.1,0.25,0.031622776601683784,1,0.501092084999982
26,114,Increase,0.1,0.25,0.02511886431509579,0,0.3904541479987529
26,115,Equal,0.1,0.1,0.01995262314968879,0,0.5216194269996777
26,116,Decrease,0.25,0.1,0.02511886431509579,1,0.4676474089992553
26,117,Equal,0.1,0.1,0.025118864315095794,0,0.5519624309999926
26,118,Equal,0.25,0.25,0.01995262314968879,0,0.627441564000037
26,119,Control,0.0,0.1,0.02511886431509579,0,0.5655401900003199
26,120,Equal,0.1,0.1,0.031622776601683784,1,0.4153678980001132
26,121,Equal,0.1,0.1,0.02511886431509579,0,0.40374078300010297
26,122,Decrease,0.25,0.1,0.01995262314968879,0,0.41592351399958716
26,123,Equal_null,0.1,0.1,0.06309573444801932,1,0.5288097129996459
26,124,Control,0.0,0.1,0.031622776601683784,1,0.532037296999988
26,125,Control,0.0,0.1,0.02511886431509579,0,0.1572117800005799
26,126,Increase,0.1,0.25,0.031622776601683784,0,0.23244368099949497
26,127,Increase,0.1,0.25,0.03981071705534971,1,0.345331704000273
26,128,Equal,0.25,0.25,0.025118864315095794,0,0.468582230998436
26,129,Control,0.0,0.1,0.031622776601683784,1,0.4238133849994483
26,130,Decrease_null,0.25,0.1,0.07943282347242815,1,0.35510403199987195
26,131,Decrease,0.25,0.1,0.025118864315095794,0,0.406413323000379
26,132,Control,0.0,0.1,0.02511886431509579,0,0.5134643180008425
26,133,Control,0.0,0.1,0.031622776601683784,1,0.477542018999884
26,134,Decrease_null,0.25,0.1,0.06309573444801932,1,0.5530806360002316
26,135,Equal,0.1,0.1,0.031622776601683784,1,0.4863872169989918
26,136,Control,0.0,0.25,0.02511886431509579,1,0.5502798560009978
26,137,Increase,0.1,0.25,0.031622776601683784,1,0.4103790770004707
26,138,Increase_null,0.1,0.25,0.06309573444801932,1,0.5064499139989493
26,139,Decrease,0.25,0.1,0.031622776601683784,1,0.5567838059996575
26,140,Control,0.0,0.25,0.01995262314968879,1,0.629925875000481
26,141,Control,0.0,0.25,0.015848931924611127,0,0.4982372869999381
26,142,Increase,0.1,0.25,0.02511886431509579,1,0.4842864180009201
26,143,Decrease_null,0.25,0.1,0.05011872336272722,1,0.4726517889994284
26,144,Equal,0.1,0.1,0.02511886431509579,1,0.5395636269986426
26,145,Control,0.0,0.25,0.01995262314968879,1,0.614841141999932
26,146,Equal,0.1,0.1,0.01995262314968879,0,0.4011277030003839
26,147,Increase,0.1,0.25,0.01995262314968879,0,0.9181750309999188
26,148,Control,0.0,0.1,0.02511886431509579,1,0.5218591840002773
26,149,Equal,0.1,0.1,0.025118864315095794,1,0.4982669149994763
26,150,Increase,0.1,0.25,0.025118864315095794,0,0.5254392080005346
26,151,Control_null,0.0,0.1,0.07943282347242815,1,0.6781543460001558
26,152,Increase,0.1,0.25,0.031622776601683784,1,0.6890874209984759
26,153,Equal_null,0.25,0.25,0.06309573444801932,1,0.43528528599927085
26,154,Control,0.0,0.1,0.01995262314968879,0,0.3665506010001991
26,155,Control,0.0,0.25,0.015848931924611127,0,0.5214335010005016
26,156,Equal,0.1,0.1,0.01995262314968879,0,0.3566714160006086
26,157,Increase,0.1,0.25,0.02511886431509579,0,0.5922354829999676
26,158,Equal,0.25,0.25,0.031622776601683784,1,0.6432102210001176
26,159,Control_null,0.0,0.25,0.03981071705534971,1,0.7994788640007755
26,160,Control,0.0,0.25,0.01995262314968879,0,0.5312067550003121
26,161,Control,0.0,0.25,0.025118864315095794,0,0.4619507669995073
26,162,Equal,0.25,0.25,0.02511886431509579,0,0.45480893199965067
26,163,Decrease,0.25,0.1,0.02511886431509579,0,0.5062465589999192
26,164,Control,0.0,0.1,0.025118864315095794,1,0.4182421069999691
26,165,Equal,0.25,0.25,0.031622776601683784,1,1.029720949998591
26,166,Equal,0.1,0.1,0.025118864315095794,1,0.5518891979991167
26,167,Control,0.0,0.25,0.031622776601683784,0,0.6029431650003971
26,168,Increase,0.1,0.25,0.031622776601683784,1,0.4622632959999464
26,169,Control,0.0,0.1,0.01995262314968879,1,0.4172729880010593
26,170,Increase,0.1,0.25,0.02511886431509579,1,0.5403352409994113
26,171,Control,0.0,0.1,0.015848931924611127,1,0.4965810640005657
26,172,Increase,0.1,0.25,0.01995262314968879,0,0.5230484249987057
26,173,Equal,0.1,0.1,0.01995262314968879,0,0.4689586020012939
26,174,Increase,0.1,0.25,0.025118864315095794,1,0.5375442759996076
26,175,Control_null,0.0,0.1,0.06309573444801932,1,0.7546320879991981
26,176,Decrease_null,0.25,0.1,0.03981071705534971,1,0.7497913249990233
26,177,Equal,0.1,0.1,0.025118864315095794,1,0.5340594110002712
26,178,Control,0.0,0.1,0.012589254117941666,1,0.6889469279994955
26,179,Control,0.0,0.1,0.009999999999999995,0,0.5552147849994071
26,180,Decrease,0.25,0.1,0.031622776601683784,1,0.4543771970002126
26,181,Equal,0.25,0.25,0.02511886431509579,1,0.3696130379994429
26,182,Equal,0.1,0.1,0.01995262314968879,1,0.3966413870002725
26,183,Decrease,0.25,0.1,0.02511886431509579,1,0.5119764920000307
26,184,Equal,0.25,0.25,0.01995262314968879,1,0.3561204079996969
26,185,Increase,0.1,0.25,0.01995262314968879,0,0.5121923459992104
26,186,Increase,0.1,0.25,0.025118864315095794,1,0.4521111190006195
26,187,Decrease_null,0.25,0.1,0.031622776601683784,1,0.7040258850011014
26,188,Equal,0.25,0.25,0.015848931924611127,1,0.6639785449988267
26,189,Control,0.0,0.25,0.03981071705534971,0,0.45096818000092753
26,190,Control,0.0,0.1,0.012589254117941666,0,0.9073308539991558
26,191,Control,0.0,0.1,0.015848931924611127,1,0.6636266540008364
26,192,Control,0.0,0.25,0.05011872336272721,1,0.7606214589995943
26,193,Control,0.0,0.1,0.012589254117941666,0,99
26,194,Equal,0.25,0.25,0.012589254117941666,0,1.032015409999076
26,195,Increase_null,0.1,0.25,0.05011872336272722,1,0.4912464879998879
26,196,Equal,0.25,0.25,0.015848931924611127,0,0.5424986069992883
26,197,Equal,0.25,0.25,0.01995262314968879,0,0.43459752000126173
26,198,Equal,0.25,0.25,0.025118864315095794,1,0.48669497199989564
26,199,Control,0.0,0.1,0.015848931924611127,0,0.9290931289997388
26,200,Equal_null,0.25,0.25,0.05011872336272722,1,0.7411235710005712
26,201,Equal,0.1,0.1,0.015848931924611127,0,0.4452212229989527
26,202,Equal,0.25,0.25,0.01995262314968879,0,0.40859117900072306
26,203,Equal,0.1,0.1,0.01995262314968879,0,0.5747299730010127
26,204,Decrease,0.25,0.1,0.01995262314968879,0,0.5298981520008965
26,205,Equal,0.25,0.25,0.025118864315095794,0,0.7397622829994361
26,206,Control,0.0,0.1,0.01995262314968879,1,0.4950178199997026
26,207,Control,0.0,0.25,0.03981071705534971,1,0.5154327350010135
26,208,Control_null,0.0,0.1,0.05011872336272722,1,0.590658147000795
26,209,Increase,0.1,0.25,0.01995262314968879,0,0.48180231699916476
26,210,Decrease_null,0.25,0.1,0.02511886431509579,1,0.6080759979995491
26,211,Equal,0.25,0.25,0.031622776601683784,0,0.539447162000215
26,212,Equal,0.25,0.25,0.03981071705534971,1,0.4763251910007966
26,213,Increase,0.1,0.25,0.025118864315095794,0,0.6246185570016678
26,214,Decrease,0.25,0.1,0.025118864315095794,1,0.4888786080009595
26,215,Increase,0.1,0.25,0.031622776601683784,1,0.46911015899968334
26,216,Equal,0.1,0.1,0.025118864315095794,0,0.47705632299948775
26,217,Increase,0.1,0.25,0.02511886431509579,1,0.38421042899972235
26,218,Control_null,0.0,0.25,0.031622776601683784,1,0.43538526600059413
26,219,Increase,0.1,0.25,0.01995262314968879,1,0.5827344350000203
26,220,Decrease,0.25,0.1,0.01995262314968879,0,0.7460240910004359
26,221,Increase,0.1,0.25,0.015848931924611127,0,0.8449627800000599
26,222,Control,0.0,0.1,0.015848931924611127,0,0.42293318699921656
26,223,Control,0.0,0.25,0.031622776601683784,0,0.37282527400020626
26,224,Control_null,0.0,0.1,0.03981071705534971,1,0.4398222210002132
26,225,Decrease,0.25,0.1,0.025118864315095794,0,0.41783731800023816
26,226,Increase,0.1,0.25,0.01995262314968879,0,0.6368992890002119
26,227,Equal,0.25,0.25,0.031622776601683784,0,0.614121096999952
26,228,Equal,0.1,0.1,0.031622776601683784,1,0.5453321919994778
26,229,Increase,0.1,0.25,0.025118864315095794,0,0.6656063880000147
26,230,Control,0.0,0.25,0.03981071705534971,1,0.6126458910002839
26,231,Control,0.0,0.1,0.01995262314968879,0,0.575936034998449
26,232,Control,0.0,0.1,0.025118864315095794,0,0.7951087270012067
26,233,Decrease,0.25,0.1,0.031622776601683784,1,0.51014848199884
26,234,Increase,0.1,0.25,0.031622776601683784,0,0.5853634790000797
26,235,Decrease,0.25,0.1,0.02511886431509579,0,0.5806580440003017
26,236,Increase,0.1,0.25,0.03981071705534971,1,0.5304891220002901
26,237,Increase,0.1,0.25,0.031622776601683784,1,0.47948222599916335
26,238,Decrease_null,0.25,0.1,0.01995262314968879,1,0.7282883580010093
26,239,Control,0.0,0.25,0.031622776601683784,1,0.8182516269989719
26,240,Control,0.0,0.25,0.02511886431509579,0,0.6601495269987936
26,241,Decrease,0.25,0.1,0.031622776601683784,1,0.4233015390000219
26,242,Decrease,0.25,0.1,0.02511886431509579,1,0.3865263429997867
26,243,Control,0.0,0.1,0.031622776601683784,1,0.4238135119994695
26,244,Equal,0.1,0.1,0.02511886431509579,1,0.7404550890005339
26,245,Equal,0.25,0.25,0.03981071705534971,1,0.5009198209991155
26,246,Control,0.0,0.25,0.031622776601683784,1,0.5451821480000945
26,247,Equal,0.25,0.25,0.031622776601683784,1,0.465541535999364
26,248,Increase,0.1,0.25,0.02511886431509579,0,0.5407731089999288
26,249,Equal,0.25,0.25,0.02511886431509579,1,0.47645548800028337
26,250,Control,0.0,0.1,0.02511886431509579,1,0.4160163720007404
26,251,Control,0.0,0.1,0.01995262314968879,0,0.5078287339983945
26,252,Equal,0.1,0.1,0.01995262314968879,0,0.454424122999626
26,253,Control_null,0.0,0.1,0.031622776601683784,1,0.4267378229997121
26,254,Increase,0.1,0.25,0.031622776601683784,1,0.2937884089988074
26,255,Equal,0.25,0.25,0.01995262314968879,0,0.6565811250002298
26,256,Equal,0.25,0.25,0.025118864315095794,1,0.49356406100014283
26,257,Control,0.0,0.1,0.025118864315095794,1,0.6746167749988672
26,258,Control,0.0,0.25,0.02511886431509579,1,0.6265560840001854
26,259,Control,0.0,0.1,0.01995262314968879,0,0.31873129900122876
26,260,Control,0.0,0.25,0.01995262314968879,0,0.47562973400090414
26,261,Equal,0.1,0.1,0.025118864315095794,1,0.4553395429993543
26,262,Control,0.0,0.25,0.025118864315095794,0,0.6562206319995312
26,263,Decrease,0.25,0.1,0.01995262314968879,0,0.5312779579999187
26,264,Decrease,0.25,0.1,0.025118864315095794,0,0.4860961379999935
26,265,Control,0.0,0.1,0.025118864315095794,0,0.47354087100029574
26,266,Decrease,0.25,0.1,0.031622776601683784,1,0.44606384100006835
26,267,Equal,0.25,0.25,0.01995262314968879,1,0.7691389529991284
26,268,Increase,0.1,0.25,0.02511886431509579,1,0.47637908500109916
26,269,Equal,0.25,0.25,0.015848931924611127,0,0.40096030100175994
26,270,Decrease,0.25,0.1,0.02511886431509579,0,0.4780176649983332
26,271,Equal,0.25,0.25,0.01995262314968879,0,0.5339276069989864
26,272,Increase,0.1,0.25,0.01995262314968879,0,0.32122806500046863
26,273,Control_null,0.0,0.25,0.02511886431509579,1,0.5293774700003269
26,274,Control_null,0.0,0.1,0.02511886431509579,1,0.5880894029996853
26,275,Control,0.0,0.25,0.031622776601683784,1,0.469640306000656
26,276,Increase,0.1,0.25,0.025118864315095794,1,0.47286645399981353
26,277,Increase,0.1,0.25,0.01995262314968879,0,0.427849289999358
26,278,Increase,0.1,0.25,0.025118864315095794,0,0.5031698179991508
26,279,Decrease,0.25,0.1,0.031622776601683784,1,0.44345101500039164
26,280,Control,0.0,0.1,0.031622776601683784,1,0.47071497299839393
26,281,Equal,0.1,0.1,0.01995262314968879,0,0.4328379850012425
26,282,Control,0.0,0.25,0.02511886431509579,0,0.7825824830015335
26,283,Control,0.0,0.25,0.031622776601683784,1,0.5156250039999577
26,284,Control,0.0,0.25,0.02511886431509579,0,0.6924429239988967
26,285,Control,0.0,0.1,0.02511886431509579,0,0.6876904719993036
26,286,Equal,0.25,0.25,0.025118864315095794,0,0.6475634159996844
26,287,Control,0.0,0.25,0.031622776601683784,1,0.47484208999958355
26,288,Decrease,0.25,0.1,0.02511886431509579,0,0.708432867000738
26,289,Equal,0.1,0.1,0.025118864315095794,1,0.5832585990010557
26,290,Equal,0.1,0.1,0.01995262314968879,0,0.4423999480004568
26,291,Increase,0.1,0.25,0.031622776601683784,1,0.5585725359997014
26,292,Equal,0.1,0.1,0.025118864315095794,1,0.38576114200077427
26,293,Equal,0.1,0.1,0.01995262314968879,0,0.5329303439993964
26,294,Equal,0.1,0.1,0.025118864315095794,0,0.400420504000067
26,295,Decrease,0.25,0.1,0.031622776601683784,1,0.5100786200000584
26,296,Equal_null,0.1,0.1,0.05011872336272722,1,0.4741786160011543
26,297,Increase,0.1,0.25,0.02511886431509579,0,0.2577069369999663
26,298,Control,0.0,0.1,0.031622776601683784,1,0.6920748040010949
26,299,Increase,0.1,0.25,0.031622776601683784,1,0.6684551039998041
26,300,Decrease,0.25,0.1,0.02511886431509579,0,0.6565512729994225
26,301,Control,0.0,0.25,0.02511886431509579,0,0.593562396001289
26,302,Increase,0.1,0.25,0.02511886431509579,0,0.3559368070000346
26,303,Decrease,0.25,0.1,0.031622776601683784,0,0.3119267719994241
26,304,Control,0.0,0.1,0.02511886431509579,0,0.6910744329998124
26,305,Control,0.0,0.1,0.031622776601683784,1,0.3901789239989739
26,306,Decrease,0.25,0.1,0.03981071705534971,1,0.4335701239997434
26,307,Control,0.0,0.25,0.031622776601683784,1,0.5476876709999488
26,308,Increase,0.1,0.25,0.031622776601683784,1,0.4412376590007625
26,309,Equal,0.25,0.25,0.031622776601683784,1,0.3817695500001719
26,310,Equal_null,0.25,0.25,0.03981071705534971,1,0.39718630199968175
26,311,Control,0.0,0.1,0.02511886431509579,0,0.6245125000004919
26,312,Control_null,0.0,0.25,0.01995262314968879,1,0.48951236399989284
26,313,Decrease_null,0.25,0.1,0.015848931924611127,1,0.4037552619993221
26,314,Equal,0.1,0.1,0.031622776601683784,0,0.5338001950003672
26,315,Equal,0.25,0.25,0.02511886431509579,1,0.6812354800003959
26,316,Increase,0.1,0.25,0.02511886431509579,0,0.5895661199992901
26,317,Increase,0.1,0.25,0.031622776601683784,1,0.6085155319997284
26,318,Equal,0.25,0.25,0.01995262314968879,1,0.5617441570011579
26,319,Equal,0.25,0.25,0.015848931924611127,0,0.5500495050000609
26,320,Equal,0.25,0.25,0.01995262314968879,0,0.3761519679992489
26,321,Equal,0.1,0.1,0.03981071705534971,1,0.4431776899982651
26,322,Equal,0.25,0.25,0.025118864315095794,0,0.39832471099907707
26,323,Control,0.0,0.25,0.02511886431509579,0,0.6874896350000199
26,324,Equal,0.1,0.1,0.031622776601683784,1,0.5148124770003051
26,325,Control,0.0,0.25,0.031622776601683784,1,0.5551285530000314
26,326,Equal,0.25,0.25,0.031622776601683784,1,0.5261872880000737
26,327,Equal,0.1,0.1,0.02511886431509579,0,0.36832822500036855
26,328,Equal,0.25,0.25,0.02511886431509579,0,0.39535353199971723
26,329,Increase,0.1,0.25,0.02511886431509579,0,0.5107216699998389
26,330,Control,0.0,0.25,0.02511886431509579,0,0.40982806000101846
26,331,Decrease,0.25,0.1,0.031622776601683784,1,0.3420322900001338
26,332,Increase,0.1,0.25,0.031622776601683784,0,0.38778370300133247
26,333,Control,0.0,0.25,0.031622776601683784,0,0.5253550720008207
26,334,Control,0.0,0.25,0.03981071705534971,1,0.3768156269998144
26,335,Increase,0.1,0.25,0.03981071705534971,1,0.5318753939991439
26,336,Decrease,0.25,0.1,0.02511886431509579,0,0.42775544700089085
26,337,Decrease_null,0.25,0.1,0.012589254117941666,1,0.5591597890015692
26,338,Control,0.0,0.25,0.031622776601683784,1,0.3365942830005224
26,339,Control,0.0,0.25,0.02511886431509579,0,0.4754739480013086
26,340,Increase,0.1,0.25,0.031622776601683784,0,99
26,341,Equal,0.25,0.25,0.031622776601683784,1,0.4090809930003161
26,342,Control,0.0,0.25,0.031622776601683784,1,0.5484139239997603
26,343,Decrease,0.25,0.1,0.031622776601683784,1,0.5115061329997843
26,344,Equal,0.1,0.1,0.031622776601683784,1,0.5329778059985983
26,345,Increase,0.1,0.25,0.03981071705534971,1,0.39985411499947077
26,346,Control,0.0,0.1,0.031622776601683784,1,0.4668462070003443
26,347,Control,0.0,0.25,0.02511886431509579,0,0.46998350200010464
26,348,Control_null,0.0,0.25,0.015848931924611127,1,0.7454264130010415
26,349,Equal_null,0.25,0.25,0.031622776601683784,1,0.6664837780008384
26,350,Control,0.0,0.1,0.02511886431509579,0,0.6617105639998044
26,351,Control,0.0,0.25,0.031622776601683784,1,0.6939490090007894
26,352,Equal,0.1,0.1,0.02511886431509579,0,0.5608740539992141
26,353,Increase,0.1,0.25,0.031622776601683784,0,0.6272605680005654
26,354,Control,0.0,0.1,0.031622776601683784,1,0.48738288300046406
26,355,Equal,0.25,0.25,0.02511886431509579,1,0.3787224210009299
26,356,Control,0.0,0.1,0.02511886431509579,1,0.5178418870000314
26,357,Decrease,0.25,0.1,0.02511886431509579,0,0.7220096010005363
26,358,Equal,0.1,0.1,0.031622776601683784,0,0.9902209119991312
26,359,Increase,0.1,0.25,0.03981071705534971,1,0.5762925069993798
26,360,Equal,0.25,0.25,0.01995262314968879,0,0.6344889270003478
26,361,Decrease,0.25,0.1,0.031622776601683784,1,0.38153733600120177
26,362,Control_null,0.0,0.1,0.01995262314968879,1,0.3847915099995589
26,363,Equal,0.25,0.25,0.025118864315095794,1,0.4612085199987632
26,364,Increase,0.1,0.25,0.031622776601683784,1,0.48348677499961923
26,365,Equal_null,0.25,0.25,0.02511886431509579,1,0.4751185519999126
26,366,Increase,0.1,0.25,0.02511886431509579,1,0.5502732490003837
26,367,Equal,0.25,0.25,0.01995262314968879,0,0.5037409729993669
26,368,Control_null,0.0,0.25,0.012589254117941666,1,0.44298008999976446
26,369,Equal,0.25,0.25,0.025118864315095794,0,0.6190081360000477
26,370,Equal,0.1,0.1,0.03981071705534971,1,0.4862425819992495
26,371,Increase,0.1,0.25,0.01995262314968879,0,0.6414887909995741
26,372,Equal,0.25,0.25,0.031622776601683784,1,0.4604363460002787
26,373,Equal,0.1,0.1,0.031622776601683784,0,0.6156426899997314
26,374,Equal,0.25,0.25,0.02511886431509579,0,0.49193083600039245
26,375,Decrease,0.25,0.1,0.02511886431509579,0,0.3901228459999402
26,376,Control_null,0.0,0.25,0.009999999999999995,1,0.4747229439999501
26,377,Equal,0.25,0.25,0.031622776601683784,1,0.4560166400005983
26,378,Control,0.0,0.25,0.02511886431509579,1,0.4887025909993099
26,379,Increase,0.1,0.25,0.025118864315095794,1,0.49995508000029076
26,380,Equal,0.25,0.25,0.02511886431509579,0,0.4521090340003866
26,381,Control,0.0,0.1,0.01995262314968879,0,0.6162349730002461
26,382,Equal,0.1,0.1,0.03981071705534971,1,0.48074068399910175
26,383,Control,0.0,0.25,0.01995262314968879,1,0.49175358600041363
26,384,Control,0.0,0.1,0.025118864315095794,0,0.5346352199994726
26,385,Control,0.0,0.1,0.031622776601683784,1,0.5219799759997841
26,386,Control,0.0,0.1,0.02511886431509579,0,0.3501632459992834
26,387,Equal,0.1,0.1,0.031622776601683784,1,0.4254779469993082
26,388,Increase_null,0.1,0.25,0.03981071705534971,1,0.4605814489987097
26,389,Control,0.0,0.1,0.031622776601683784,1,0.39317010100057814
26,390,Equal,0.1,0.1,0.02511886431509579,0,0.4532055789986771
26,391,Control,0.0,0.25,0.015848931924611127,0,0.5821520970002894
26,392,Decrease,0.25,0.1,0.031622776601683784,1,0.3131545220003318
26,393,Decrease,0.25,0.1,0.02511886431509579,1,0.4266921969992836
26,394,Increase,0.1,0.25,0.01995262314968879,1,0.5259245359993656
26,395,Control_null,0.0,0.25,0.00794328234724281,1,0.4139585859993531
26,396,Equal,0.25,0.25,0.031622776601683784,1,0.4340923709987692
26,397,Equal,0.1,0.1,0.031622776601683784,1,0.46124698799940234
26,398,Control,0.0,0.1,0.02511886431509579,0,0.4966360039998108
26,399,Equal,0.1,0.1,0.02511886431509579,1,0.7234770619998017
26,400,Increase,0.1,0.25,0.015848931924611127,1,0.5347095840006659
26,401,Control,0.0,0.1,0.031622776601683784,1,0.3857293370001571
26,402,Decrease,0.25,0.1,0.01995262314968879,1,0.4224401430001308
26,403,Decrease,0.25,0.1,0.015848931924611127,1,0.42779092300042976
26,404,Equal_null,0.1,0.1,0.03981071705534971,1,0.4194519359989499
26,405,Control,0.0,0.25,0.01995262314968879,1,0.5839499529993191
26,406,Equal,0.1,0.1,0.01995262314968879,0,0.4959532649991161
26,407,Equal,0.25,0.25,0.02511886431509579,0,0.5071444820005127
26,408,Equal,0.25,0.25,0.031622776601683784,1,1.0923522299999604
26,409,Equal,0.1,0.1,0.025118864315095794,0,0.6951598539999395
26,410,Decrease,0.25,0.1,0.012589254117941666,0,0.6664613149987417
26,411,Decrease,0.25,0.1,0.015848931924611127,0,0.6139452410006925
26,412,Decrease,0.25,0.1,0.01995262314968879,0,0.4094084999996994
26,413,Equal,0.25,0.25,0.02511886431509579,0,0.4682600319993071
26,414,Control,0.0,0.25,0.015848931924611127,0,0.5286390519995621
26,415,Increase,0.1,0.25,0.012589254117941666,0,0.44533506399966427
26,416,Equal,0.1,0.1,0.031622776601683784,1,0.4808209930015437
26,417,Increase,0.1,0.25,0.015848931924611127,0,0.7446166099998663
26,418,Equal,0.25,0.25,0.031622776601683784,1,0.507860839001296
26,419,Equal,0.1,0.1,0.02511886431509579,0,0.8854458020014135
26,420,Decrease,0.25,0.1,0.025118864315095794,0,0.5204681790000905
26,421,Equal,0.1,0.1,0.031622776601683784,0,0.8328213029999461
26,422,Equal,0.1,0.1,0.03981071705534971,1,0.5075823799998034
26,423,Increase,0.1,0.25,0.01995262314968879,0,0.5199704709993966
26,424,Decrease,0.25,0.1,0.031622776601683784,1,0.41136849199938297
26,425,Control,0.0,0.1,0.02511886431509579,1,0.5106030279985134
26,426,Increase,0.1,0.25,0.025118864315095794,1,0.401924345000225
26,427,Equal,0.25,0.25,0.02511886431509579,1,0.5088140930001828
26,428,Decrease,0.25,0.1,0.02511886431509579,0,0.5205733160000818
26,429,Equal_null,0.1,0.1,0.031622776601683784,1,0.46171262499956356
26,430,Control_null,0.0,0.25,0.0063095734448019285,1,0.5490926790007506
26,431,Control,0.0,0.25,0.01995262314968879,0,0.49624657400090655
26,432,Control,0.0,0.25,0.025118864315095794,0,0.37602680300005886
26,433,Decrease,0.25,0.1,0.031622776601683784,1,0.5640244930000335
26,434,Increase_null,0.1,0.25,0.031622776601683784,1,0.5651659890008887
26,435,Decrease,0.25,0.1,0.02511886431509579,0,0.5603054950006481
26,436,Control,0.0,0.25,0.031622776601683784,0,0.2035307219994138
26,437,Increase,0.1,0.25,0.01995262314968879,0,0.5266154229993845
26,438,Control,0.0,0.1,0.01995262314968879,0,0.20162318500115362
26,439,Equal,0.1,0.1,0.031622776601683784,0,0.43802857900118397
26,440,Control,0.0,0.25,0.03981071705534971,1,0.36918061600044894
26,441,Control,0.0,0.1,0.025118864315095794,1,0.39773808700010704
26,442,Control,0.0,0.1,0.01995262314968879,0,0.5461548889998085
26,443,Increase,0.1,0.25,0.025118864315095794,0,0.7538103150000097
26,444,Increase,0.1,0.25,0.031622776601683784,0,0.6208279519996722
26,445,Increase,0.1,0.25,0.03981071705534971,1,0.40624962499896355
26,446,Control,0.0,0.1,0.025118864315095794,0,0.4894896349996998
26,447,Decrease,0.25,0.1,0.031622776601683784,1,0.38625322000007145
26,448,Increase,0.1,0.25,0.031622776601683784,1,0.5668199470001127
26,449,Equal,0.25,0.25,0.01995262314968879,0,0.4019012470016605
26,450,Equal_null,0.1,0.1,0.02511886431509579,1,0.4611418690001301
26,451,Equal,0.25,0.25,0.025118864315095794,0,0.40046673200049554
26,452,Increase,0.1,0.25,0.02511886431509579,0,0.43562394000036875
26,453,Increase,0.1,0.25,0.031622776601683784,1,0.46375658299984934
26,454,Equal,0.25,0.25,0.031622776601683784,1,0.5539409299999534
26,455,Equal,0.1,0.1,0.03981071705534971,1,0.5417109560003155
26,456,Control_null,0.0,0.25,0.005011872336272719,1,0.7350718720008445
26,457,Decrease,0.25,0.1,0.02511886431509579,1,0.49026217499886116
26,458,Equal,0.25,0.25,0.02511886431509579,0,0.698596832999101
26,459,Equal,0.25,0.25,0.031622776601683784,1,0.5267889259994263
26,460,Decrease,0.25,0.1,0.01995262314968879,1,0.768517256999985
26,461,Increase,0.1,0.25,0.02511886431509579,0,0.49115663500015216
26,462,Control,0.0,0.25,0.031622776601683784,1,0.7105062610007735
26,463,Control,0.0,0.1,0.031622776601683784,1,0.46672638000018196
26,464,Decrease,0.25,0.1,0.015848931924611127,0,0.5110346540004684
26,465,Control,0.0,0.25,0.02511886431509579,0,0.5940968510003586
26,466,Control,0.0,0.25,0.031622776601683784,1,0.5360306839993427
26,467,Control,0.0,0.1,0.02511886431509579,0,0.7922739330006152
26,468,Equal,0.1,0.1,0.031622776601683784,0,0.5326227170007769
26,469,Equal,0.1,0.1,0.03981071705534971,1,0.4285865530000592
26,470,Control,0.0,0.25,0.02511886431509579,1,0.5757667449997825
26,471,Increase,0.1,0.25,0.031622776601683784,0,0.32820503899893083
26,472,Increase,0.1,0.25,0.03981071705534971,1,0.45140147600068303
26,473,Control,0.0,0.1,0.031622776601683784,1,0.42949234200023056
26,474,Increase,0.1,0.25,0.031622776601683784,0,0.6644584050009144
26,475,Decrease,0.25,0.1,0.01995262314968879,0,0.5167635950001568
26,476,Control,0.0,0.1,0.02511886431509579,0,0.5840787460001593
26,477,Equal,0.25,0.25,0.02511886431509579,0,0.3791534270003467
26,478,Control,0.0,0.25,0.01995262314968879,0,0.41435143200033053
26,479,Increase,0.1,0.25,0.03981071705534971,0,0.3625254409998888
26,480,Control,0.0,0.25,0.025118864315095794,0,0.47255696799948055
26,481,Equal,0.25,0.25,0.031622776601683784,0,0.4514255489993957
26,482,Equal,0.1,0.1,0.031622776601683784,0,0.4199107960012043
26,483,Control,0.0,0.25,0.031622776601683784,0,0.3840324020002299
26,484,Equal,0.25,0.25,0.03981071705534971,0,0.3844017179999355
26,485,Equal_null,0.1,0.1,0.01995262314968879,1,0.41152343999965524
26,486,Decrease,0.25,0.1,0.025118864315095794,0,0.45465872999920975
26,487,Equal,0.1,0.1,0.03981071705534971,1,0.5057244740000897
26,488,Equal_null,0.1,0.1,0.015848931924611127,1,0.4602187390009931
26,489,Equal,0.1,0.1,0.031622776601683784,0,0.51019515400003
26,490,Control,0.0,0.25,0.03981071705534971,1,0.44121780099885655
26,491,Control,0.0,0.25,0.031622776601683784,1,0.48566899100114824
26,492,Equal_null,0.1,0.1,0.012589254117941666,1,0.3711773639988678
26,493,Control,0.0,0.25,0.02511886431509579,1,0.5229413220004062
26,494,Equal,0.1,0.1,0.03981071705534971,1,0.4311366839992843
26,495,Decrease,0.25,0.1,0.031622776601683784,1,0.49523248200057424
26,496,Control,0.0,0.1,0.031622776601683784,1,0.5862023589997989
26,497,Equal,0.25,0.25,0.05011872336272721,1,0.49059443499936606
26,498,Increase,0.1,0.25,0.05011872336272721,1,0.4389495750001515
26,499,Equal,0.25,0.25,0.03981071705534971,1,0.4420352980014286
26,500,Increase,0.1,0.25,0.03981071705534971,1,0.4692005260003498
26,501,Control,0.0,0.25,0.01995262314968879,0,0.6165483590011718
26,502,Equal,0.25,0.25,0.031622776601683784,1,0.4116678070004127
26,503,Equal,0.1,0.1,0.031622776601683784,1,0.35081054300098913
26,504,Control,0.0,0.25,0.025118864315095794,1,0.38785707500028366
26,505,Increase,0.1,0.25,0.031622776601683784,1,0.3525629639989347
26,506,Decrease_null,0.25,0.1,0.009999999999999995,1,0.37736188499911805
26,507,Equal,0.1,0.1,0.02511886431509579,0,0.691905081999721
26,508,Control,0.0,0.25,0.01995262314968879,0,0.5086463749994437
26,509,Control,0.0,0.1,0.02511886431509579,0,0.3838250329990842
26,510,Control,0.0,0.25,0.025118864315095794,0,0.3450082509989443
26,511,Equal,0.25,0.25,0.02511886431509579,0,0.48435496100137243
26,512,Equal,0.25,0.25,0.031622776601683784,0,0.3674186500011274
26,513,Control_null,0.0,0.1,0.015848931924611127,1,0.45852420299888763
26,514,Decrease,0.25,0.1,0.02511886431509579,0,0.39788000600128726
26,515,Decrease,0.25,0.1,0.031622776601683784,1,0.5781672529992647
26,516,Control,0.0,0.1,0.031622776601683784,1,0.5412566449995211
26,517,Increase,0.1,0.25,0.02511886431509579,0,0.41748418700080947
26,518,Equal,0.1,0.1,0.031622776601683784,0,0.3740312720001384
26,519,Equal_null,0.1,0.1,0.009999999999999995,1,0.24681605799924
26,520,Control,0.0,0.25,0.031622776601683784,1,0.44986949199847004
26,521,Control,0.0,0.1,0.02511886431509579,0,0.929868802000783
26,522,Increase,0.1,0.25,0.031622776601683784,1,0.5653197869996802
26,523,Increase,0.1,0.25,0.02511886431509579,1,0.5186509159993875
26,524,Equal,0.1,0.1,0.03981071705534971,1,0.5458318809996854
26,525,Control_null,0.0,0.1,0.012589254117941666,1,0.500551908999114
26,526,Control,0.0,0.1,0.031622776601683784,1,0.7600103140011925
26,527,Increase,0.1,0.25,0.01995262314968879,1,0.5710033949999342
26,528,Control,0.0,0.1,0.02511886431509579,1,0.687479741000061
26,529,Equal_null,0.25,0.25,0.01995262314968879,1,0.49879662899911636
26,530,Equal_null,0.25,0.25,0.015848931924611127,1,0.6554705369999283
26,531,Decrease,0.25,0.1,0.02511886431509579,0,0.6675228250005603
26,532,Equal,0.1,0.1,0.031622776601683784,1,0.37226697000005515
26,533,Equal,0.25,0.25,0.03981071705534971,1,0.5353282269988995
26,534,Equal,0.1,0.1,0.02511886431509579,1,0.6396576500010269
26,535,Control,0.0,0.1,0.01995262314968879,0,0.6836875739991228
26,536,Control,0.0,0.25,0.02511886431509579,0,0.9081442160004372
26,537,Control,0.0,0.25,0.031622776601683784,1,0.5830943069995556
26,538,Increase,0.1,0.25,0.015848931924611127,0,0.5954300269986561
26,539,Equal,0.25,0.25,0.031622776601683784,1,0.5175545099991723
26,540,Equal,0.25,0.25,0.02511886431509579,1,0.592681005000486
26,541,Control,0.0,0.25,0.02511886431509579,1,0.6121857980015193
26,542,Control,0.0,0.1,0.025118864315095794,1,0.9361205629993492
26,543,Decrease,0.25,0.1,0.031622776601683784,1,0.6526551829992968
26,544,Decrease,0.25,0.1,0.02511886431509579,0,0.6316528339993965
26,545,Control,0.0,0.25,0.01995262314968879,0,0.5446474159998616
26,546,Control,0.0,0.1,0.01995262314968879,0,0.633756616998653
26,547,Control,0.0,0.25,0.025118864315095794,1,0.5460503909998806
26,548,Control,0.0,0.25,0.01995262314968879,0,0.6772037179998733
26,549,Equal,0.1,0.1,0.01995262314968879,0,0.7992416190008953
26,550,Equal,0.25,0.25,0.01995262314968879,0,0.42663084699961473
26,551,Control,0.0,0.25,0.025118864315095794,1,0.5176518429998396
26,552,Control,0.0,0.1,0.025118864315095794,0,0.6890054590003274
26,553,Decrease,0.25,0.1,0.031622776601683784,1,0.49237393799921847
26,554,Control,0.0,0.25,0.01995262314968879,0,0.8712176580011146
26,555,Decrease,0.25,0.1,0.02511886431509579,1,0.5955104069998924
26,556,Equal,0.25,0.25,0.025118864315095794,0,0.34181943199837406
26,557,Control,0.0,0.25,0.025118864315095794,0,0.42692572099986137
26,558,Increase_null,0.1,0.25,0.02511886431509579,1,0.42714372699992964
26,559,Equal,0.25,0.25,0.031622776601683784,0,0.3981935280007747
26,560,Equal_null,0.1,0.1,0.00794328234724281,1,0.39029476399991836
26,561,Control,0.0,0.25,0.031622776601683784,1,0.44977594900046824
26,562,Control,0.0,0.1,0.031622776601683784,1,0.48379463800119993
26,563,Control,0.0,0.25,0.02511886431509579,0,0.45491303900053026
26,564,Control,0.0,0.25,0.031622776601683784,1,0.386189127999387
26,565,Equal,0.25,0.25,0.03981071705534971,1,0.5495121450003353
26,566,Control,0.0,0.1,0.02511886431509579,0,0.48051993700028106
26,567,Decrease,0.25,0.1,0.01995262314968879,1,0.5403580050005985
26,568,Decrease,0.25,0.1,0.015848931924611127,0,0.6717798150002636
26,569,Control,0.0,0.1,0.031622776601683784,0,0.995185888999913
26,570,Control,0.0,0.1,0.03981071705534971,1,0.4887161560000095
26,571,Increase_null,0.1,0.25,0.01995262314968879,1,0.6885126619999937
26,572,Equal,0.25,0.25,0.031622776601683784,1,0.4357111930003157
26,573,Control,0.0,0.25,0.02511886431509579,0,0.5960560449984769
26,574,Equal,0.25,0.25,0.02511886431509579,0,0.6391462840001623
26,575,Control_null,0.0,0.1,0.009999999999999995,1,0.6331817129994306
26,576,Decrease,0.25,0.1,0.01995262314968879,0,0.5804645160005748
26,577,Control,0.0,0.25,0.031622776601683784,0,0.5356525599981978
26,578,Control,0.0,0.1,0.031622776601683784,1,0.4428929360001348
26,579,Equal_null,0.1,0.1,0.0063095734448019285,1,0.4859160920004797
26,580,Equal,0.1,0.1,0.025118864315095794,1,0.5692937800013169
26,581,Control_null,0.0,0.1,0.00794328234724281,1,0.518398234000415
26,582,Increase_null,0.1,0.25,0.015848931924611127,1,0.5220492589996866
26,583,Decrease,0.25,0.1,0.025118864315095794,0,0.652763767999204
26,584,Equal_null,0.25,0.25,0.012589254117941666,1,0.5567705840003327
26,585,Increase,0.1,0.25,0.01995262314968879,0,0.6720643829994515
26,586,Control,0.0,0.25,0.03981071705534971,1,0.46526940600051603
26,587,Increase,0.1,0.25,0.025118864315095794,0,0.5964927339991846
26,588,Decrease,0.25,0.1,0.031622776601683784,1,0.6467447150007501
26,589,Equal_null,0.1,0.1,0.005011872336272719,1,0.5941701050014672
26,590,Equal,0.1,0.1,0.01995262314968879,0,0.7974160849989858
26,591,Control,0.0,0.25,0.031622776601683784,1,0.6162029110000731
26,592,Decrease,0.25,0.1,0.02511886431509579,1,0.6991249170005176
26,593,Control,0.0,0.25,0.02511886431509579,0,0.45544705700012855
26,594,Equal,0.25,0.25,0.031622776601683784,0,0.9878808820012637
26,595,Increase,0.1,0.25,0.031622776601683784,0,0.582243319000554
26,596,Equal,0.1,0.1,0.025118864315095794,0,0.7130796849996841
26,597,Equal,0.1,0.1,0.031622776601683784,1,0.44920405499942717
26,598,Increase,0.1,0.25,0.03981071705534971,1,0.8765426900008606
26,599,Increase,0.1,0.25,0.031622776601683784,0,0.5969789620012307
26,600,Increase,0.1,0.25,0.03981071705534971,1,0.45413487600126246
26,601,Control,0.0,0.25,0.031622776601683784,1,0.4733180339990213
26,602,Equal,0.1,0.1,0.02511886431509579,0,0.4286537309999403
26,603,Control,0.0,0.1,0.02511886431509579,0,0.4343075739998312
26,604,Equal,0.1,0.1,0.031622776601683784,1,0.6131757000002835
26,605,Equal,0.1,0.1,0.02511886431509579,1,0.5031744569987495
26,606,Control,0.0,0.25,0.02511886431509579,0,0.41830473999834794
26,607,Decrease,0.25,0.1,0.01995262314968879,0,0.4294539900001837
26,608,Equal,0.25,0.25,0.03981071705534971,1,0.4627208259989857
26,609,Control,0.0,0.1,0.031622776601683784,0,0.45773759800067637
26,610,Decrease,0.25,0.1,0.025118864315095794,0,0.43385672899967176
26,611,Decrease,0.25,0.1,0.031622776601683784,1,0.421024416000364
26,612,Increase_null,0.1,0.25,0.012589254117941666,1,0.28044737900017935
26,613,Decrease,0.25,0.1,0.02511886431509579,0,0.5876453750006476
26,614,Control,0.0,0.25,0.031622776601683784,1,0.5348606820007262
26,615,Decrease,0.25,0.1,0.031622776601683784,1,0.5781272080002964
26,616,Control,0.0,0.25,0.02511886431509579,0,0.4955163300001004
26,617,Increase,0.1,0.25,0.031622776601683784,1,0.5478126430007251
26,618,Control,0.0,0.1,0.03981071705534971,1,0.4697282519991859
26,619,Equal,0.1,0.1,0.01995262314968879,0,0.44081368400111387
26,620,Control,0.0,0.1,0.031622776601683784,0,0.46805852000034065
26,621,Equal,0.1,0.1,0.025118864315095794,0,0.6442912889997388
26,622,Equal,0.1,0.1,0.031622776601683784,1,0.44047157199929643
26,623,Equal,0.25,0.25,0.031622776601683784,1,0.5043186129987589
26,624,Control,0.0,0.25,0.031622776601683784,1,0.44332720099919243
26,625,Control,0.0,0.25,0.02511886431509579,1,0.35857031300110975
26,626,Control,0.0,0.25,0.01995262314968879,0,0.46603579800103034
26,627,Decrease,0.25,0.1,0.02511886431509579,1,0.5572381269994366
26,628,Control,0.0,0.1,0.03981071705534971,1,0.42434643900014635
26,629,Increase,0.1,0.25,0.02511886431509579,0,0.5571447889997216
26,630,Control,0.0,0.1,0.031622776601683784,1,0.5069838670005993
26,631,Decrease,0.25,0.1,0.01995262314968879,1,0.5321881309992023
26,632,Increase,0.1,0.25,0.031622776601683784,0,0.3351999580008851
26,633,Control_null,0.0,0.1,0.0063095734448019285,1,0.4259233580014552
26,634,Equal,0.25,0.25,0.02511886431509579,0,0.5076707910011464
26,635,Increase,0.1,0.25,0.03981071705534971,1,0.48681216499971924
26,636,Increase,0.1,0.25,0.031622776601683784,1,0.5265899509995506
26,637,Control,0.0,0.1,0.02511886431509579,1,0.6498290449999331
26,638,Control,0.0,0.1,0.01995262314968879,0,0.5892030049999448
26,639,Increase,0.1,0.25,0.02511886431509579,0,0.39230808800130035
26,640,Decrease,0.25,0.1,0.015848931924611127,0,0.5728816459995869
26,641,Decrease,0.25,0.1,0.01995262314968879,0,0.7920218269991892
26,642,Control,0.0,0.25,0.025118864315095794,0,0.4846211610001774
26,643,Control,0.0,0.1,0.025118864315095794,1,0.5052646909989562
26,644,Equal,0.1,0.1,0.02511886431509579,1,0.4593605749996641
26,645,Increase,0.1,0.25,0.031622776601683784,0,0.48666343100012455
26,646,Control,0.0,0.25,0.031622776601683784,1,0.5220178649997251
26,647,Equal,0.25,0.25,0.031622776601683784,1,0.44172265300039726
26,648,Equal,0.25,0.25,0.02511886431509579,1,0.5969052870004816
26,649,Equal,0.25,0.25,0.01995262314968879,0,0.32626408000032825
26,650,Equal,0.25,0.25,0.025118864315095794,0,0.5538872849992913
26,651,Equal,0.1,0.1,0.01995262314968879,0,0.5086485580013687
26,652,Control,0.0,0.25,0.02511886431509579,0,0.6076780010007496
26,653,Equal,0.25,0.25,0.031622776601683784,1,0.49208520100000896
26,654,Increase,0.1,0.25,0.03981071705534971,1,0.5273895780010207
26,655,Equal,0.1,0.1,0.025118864315095794,1,0.6280311849986902
26,656,Control,0.0,0.1,0.01995262314968879,0,0.7120576150009583
26,657,Control,0.0,0.1,0.025118864315095794,0,0.7619085480000649
26,658,Increase,0.1,0.25,0.031622776601683784,1,0.5158318579997285
26,659,Control,0.0,0.1,0.031622776601683784,0,0.6712762629995268
26,660,Equal,0.25,0.25,0.02511886431509579,0,0.7115263519990549
26,661,Increase,0.1,0.25,0.02511886431509579,0,0.578659509001227
26,662,Equal,0.1,0.1,0.01995262314968879,0,0.723987813000349
26,663,Equal_null,0.25,0.25,0.009999999999999995,1,0.6869251660009468
26,664,Equal,0.1,0.1,0.025118864315095794,0,0.6099481460005336
26,665,Increase,0.1,0.25,0.031622776601683784,1,0.6614653720007482
26,666,Control,0.0,0.1,0.03981071705534971,1,0.4965115610011708
26,667,Control,0.0,0.1,0.031622776601683784,1,0.4767238410004211
26,668,Control,0.0,0.1,0.02511886431509579,1,0.6802956789997552
26,669,Equal,0.25,0.25,0.031622776601683784,0,0.5096594700007699
26,670,Control,0.0,0.25,0.031622776601683784,1,0.5664936160010257
26,671,Increase,0.1,0.25,0.02511886431509579,0,0.5453850150006474
26,672,Equal,0.1,0.1,0.031622776601683784,1,0.41042550500060315
26,673,Equal,0.25,0.25,0.03981071705534971,1,0.45393181500003266
26,674,Equal,0.1,0.1,0.02511886431509579,1,0.5451728140014893
26,675,Decrease,0.25,0.1,0.025118864315095794,0,0.5540427209998597
26,676,Increase,0.1,0.25,0.031622776601683784,1,0.509426558000996
26,677,Control,0.0,0.25,0.02511886431509579,0,0.7124690230011765
26,678,Equal,0.25,0.25,0.031622776601683784,1,0.6600315060004505
26,679,Control,0.0,0.25,0.031622776601683784,1,0.5681363429994235
26,680,Decrease,0.25,0.1,0.031622776601683784,1,0.42736887600040063
26,681,Equal,0.25,0.25,0.02511886431509579,0,0.470142019999912
26,682,Equal,0.1,0.1,0.01995262314968879,0,0.5546343919995707
26,683,Increase,0.1,0.25,0.02511886431509579,1,0.3886705820004863
26,684,Equal,0.25,0.25,0.031622776601683784,0,0.5208935070004372
26,685,Decrease,0.25,0.1,0.02511886431509579,1,0.6488528520003456
26,686,Control,0.0,0.1,0.01995262314968879,0,0.5644189429986
26,687,Equal,0.25,0.25,0.03981071705534971,1,0.5595117459997709
26,688,Control,0.0,0.1,0.025118864315095794,1,0.6564037240004836
26,689,Decrease,0.25,0.1,0.01995262314968879,0,0.44416993799859483
26,690,Equal,0.25,0.25,0.031622776601683784,0,0.6081897519998165
26,691,Increase,0.1,0.25,0.01995262314968879,0,0.5473489299984067
26,692,Equal,0.25,0.25,0.03981071705534971,1,0.3904899659992225
26,693,Decrease,0.25,0.1,0.025118864315095794,1,0.49757340499854763
26,694,Control_null,0.0,0.1,0.005011872336272719,1,0.4128928569989512
26,695,Increase,0.1,0.25,0.025118864315095794,0,0.690544143999432
26,696,Increase,0.1,0.25,0.031622776601683784,1,0.49813810200066655
26,697,Decrease,0.25,0.1,0.01995262314968879,1,0.5413862860004883
26,698,Increase,0.1,0.25,0.02511886431509579,1,0.5894460130002699
26,699,Control,0.0,0.1,0.01995262314968879,0,0.47364837399982207
26,700,Control,0.0,0.1,0.025118864315095794,0,0.6528995089993259
26,701,Increase,0.1,0.25,0.01995262314968879,0,0.654025444000581
26,702,Equal,0.25,0.25,0.031622776601683784,1,0.6010546180004894
26,703,Increase,0.1,0.25,0.025118864315095794,1,0.6524715989999095
26,704,Control,0.0,0.25,0.02511886431509579,0,0.5196075519997976
26,705,Equal,0.1,0.1,0.025118864315095794,1,0.507785800999045
26,706,Equal,0.25,0.25,0.02511886431509579,1,0.6311879330005468
26,707,Increase,0.1,0.25,0.01995262314968879,0,0.8173783260008349
26,708,Increase_null,0.1,0.25,0.009999999999999995,1,0.7493649030002416
26,709,Control,0.0,0.1,0.031622776601683784,1,0.44582095199984906
26,710,Decrease_null,0.25,0.1,0.00794328234724281,1,0.5926192040005844
26,711,Increase,0.1,0.25,0.025118864315095794,0,0.7940142440002091
26,712,Equal,0.1,0.1,0.01995262314968879,0,0.6369170670004678
26,713,Equal,0.1,0.1,0.025118864315095794,0,0.776523091000854
26,714,Control,0.0,0.25,0.031622776601683784,1,0.49045114399996237
26,715,Equal,0.25,0.25,0.01995262314968879,0,0.613633976001438
26,716,Control,0.0,0.25,0.02511886431509579,1,0.4886880449994351
26,717,Control,0.0,0.25,0.01995262314968879,0,0.588017509000565
26,718,Increase,0.1,0.25,0.031622776601683784,1,0.47184959500009427
26,719,Decrease_null,0.25,0.1,0.0063095734448019285,1,0.7396922070001892
26,720,Decrease,0.25,0.1,0.015848931924611127,0,0.48869727199962654
26,721,Equal,0.25,0.25,0.025118864315095794,0,0.4326646380013699
26,722,Control,0.0,0.1,0.02511886431509579,0,0.4443054449984629
26,723,Equal,0.25,0.25,0.031622776601683784,1,0.34308646699901146
26,724,Decrease_null,0.25,0.1,0.005011872336272719,1,0.44233942400023807
26,725,Control,0.0,0.25,0.025118864315095794,0,0.5255518379999558
26,726,Equal,0.1,0.1,0.031622776601683784,1,0.4887291720006033
26,727,Increase_null,0.1,0.25,0.00794328234724281,1,0.39615909600070154
26,728,Increase,0.1,0.25,0.02511886431509579,0,0.362221296001735
26,729,Increase,0.1,0.25,0.031622776601683784,1,0.40720751200024097
26,730,Control,0.0,0.1,0.031622776601683784,0,0.37556986500021594
26,731,Control,0.0,0.1,0.03981071705534971,1,0.39464178400157834
26,732,Equal,0.1,0.1,0.02511886431509579,1,0.5067637339998328
26,733,Equal_null,0.25,0.25,0.00794328234724281,1,0.26196051300030376
26,734,Control,0.0,0.1,0.031622776601683784,1,0.4312545560005674
26,735,Equal,0.1,0.1,0.01995262314968879,0,0.7144133840010909
26,736,Increase,0.1,0.25,0.02511886431509579,0,0.43649317100062035
26,737,Equal,0.25,0.25,0.02511886431509579,0,0.3759782350007299
26,738,Decrease,0.25,0.1,0.01995262314968879,1,0.8519986239989521
26,739,Increase,0.1,0.25,0.031622776601683784,1,0.4951102989998617
26,740,Decrease,0.25,0.1,0.015848931924611127,0,0.4504326119986217
26,741,Equal,0.1,0.1,0.025118864315095794,0,0.824015853999299
26,742,Equal,0.1,0.1,0.031622776601683784,1,0.4438858470002742
26,743,Control,0.0,0.25,0.031622776601683784,1,0.4368513629997324
26,744,Control,0.0,0.1,0.02511886431509579,0,0.5521224430012808
26,745,Equal,0.1,0.1,0.02511886431509579,1,0.5044091620002291
26,746,Control,0.0,0.25,0.02511886431509579,1,0.5324921640003595
26,747,Control,0.0,0.1,0.031622776601683784,1,0.5643973909991473
26,748,Control,0.0,0.1,0.02511886431509579,0,0.49551738100126386
26,749,Decrease,0.25,0.1,0.01995262314968879,0,0.5470934079985454
26,750,Equal,0.25,0.25,0.031622776601683784,1,0.4462660329991195
26,751,Decrease,0.25,0.1,0.025118864315095794,1,0.5055380489993695
26,752,Control,0.0,0.1,0.031622776601683784,1,0.5246869729999162
26,753,Equal,0.25,0.25,0.02511886431509579,1,0.46471588900021743
26,754,Equal,0.1,0.1,0.01995262314968879,0,0.6453015299994149
26,755,Control,0.0,0.1,0.02511886431509579,0,0.5223500779993628
26,756,Decrease,0.25,0.1,0.01995262314968879,0,0.4354963459991268
26,757,Decrease,0.25,0.1,0.025118864315095794,1,0.4864266189997579
26,758,Decrease,0.25,0.1,0.01995262314968879,0,0.49480453499927535
26,759,Control,0.0,0.25,0.01995262314968879,0,0.4830679219994636
26,760,Decrease,0.25,0.1,0.025118864315095794,0,0.45104600499871594
26,761,Decrease,0.25,0.1,0.031622776601683784,1,0.48597178800082474
26,762,Control,0.0,0.1,0.031622776601683784,1,0.5375995779995719
26,763,Control,0.0,0.25,0.025118864315095794,0,0.4527258759990218
26,764,Control,0.0,0.1,0.02511886431509579,1,0.48798939299922495
26,765,Equal,0.25,0.25,0.01995262314968879,0,0.38806582399956824
26,766,Equal,0.1,0.1,0.025118864315095794,1,0.383336758999576
26,767,Equal_null,0.25,0.25,0.0063095734448019285,1,0.3956976230001601
26,768,Increase_null,0.1,0.25,0.0063095734448019285,1,0.7125379629997042
26,769,Control,0.0,0.1,0.01995262314968879,0,0.5769590050003899
26,770,Equal,0.25,0.25,0.025118864315095794,0,0.5641033629999583
26,771,Equal_null,0.25,0.25,0.005011872336272719,1,0.452069171000403
26,772,Control,0.0,0.1,0.025118864315095794,0,0.4950826179992873
26,773,Equal,0.1,0.1,0.01995262314968879,0,0.6165594670001155
26,774,Equal,0.1,0.1,0.025118864315095794,0,0.5798631119996571
26,775,Equal,0.1,0.1,0.031622776601683784,1,0.36360534000050393
26,776,Control,0.0,0.25,0.031622776601683784,1,0.5188955329995224
26,777,Increase_null,0.1,0.25,0.005011872336272719,1,0.8434727259991632
26,778,Decrease,0.25,0.1,0.02511886431509579,1,0.6065738509987568
26,779,Control,0.0,0.25,0.02511886431509579,0,0.4896905279983912
26,780,Control,0.0,0.25,0.031622776601683784,1,0.5181718790008745
26,781,Control,0.0,0.25,0.02511886431509579,1,0.44301189500038163
26,782,Decrease,0.25,0.1,0.01995262314968879,0,0.3472299949989974
26,783,Equal,0.1,0.1,0.02511886431509579,1,0.5422669949984993
26,784,Decrease,0.25,0.1,0.025118864315095794,0,0.4236284250000608
26,785,Decrease,0.25,0.1,0.031622776601683784,1,0.7387458470002457
26,786,Equal,0.25,0.25,0.031622776601683784,1,0.5722118880003109
26,787,Equal,0.25,0.25,0.02511886431509579,1,0.551197663999119
26,788,Control,0.0,0.1,0.031622776601683784,0,0.7544712390008499
26,789,Control,0.0,0.25,0.01995262314968879,0,0.7496025480013486
26,790,Decrease,0.25,0.1,0.02511886431509579,0,0.6006708870008879
26,791,Decrease,0.25,0.1,0.031622776601683784,1,0.524004551998587
26,792,Control,0.0,0.25,0.025118864315095794,0,0.495170493999467
26,793,Control,0.0,0.1,0.03981071705534971,0,0.6046221930009779
26,794,Equal,0.25,0.25,0.01995262314968879,0,0.4808891320008115
26,795,Equal,0.25,0.25,0.025118864315095794,0,0.44165495299967006
26,796,Control,0.0,0.25,0.031622776601683784,1,0.46887034800056426
26,797,Equal,0.25,0.25,0.031622776601683784,1,0.44499076300053275
26,798,Decrease,0.25,0.1,0.02511886431509579,1,0.4482255279999663
26,799,Equal,0.25,0.25,0.02511886431509579,1,0.4973968279991823
26,800,Equal,0.1,0.1,0.01995262314968879,0,0.44444548599858535
26,801,Equal,0.25,0.25,0.01995262314968879,0,0.4079684560001624
26,802,Control,0.0,0.1,0.05011872336272721,1,0.42810135100080515
26,803,Control,0.0,0.1,0.03981071705534971,1,0.40737577399886504
26,804,Equal,0.1,0.1,0.025118864315095794,1,0.5784252289995493
26,805,Control,0.0,0.25,0.02511886431509579,1,0.5655573250005546
26,806,Control,0.0,0.1,0.031622776601683784,1,0.5707190819994139
26,807,Equal,0.1,0.1,0.01995262314968879,0,0.5975080209991575
26,808,Decrease,0.25,0.1,0.01995262314968879,0,0.8618819600014831
26,809,Control,0.0,0.1,0.02511886431509579,1,0.9374413160003314
26,810,Control,0.0,0.1,0.01995262314968879,0,0.4904571799997939
26,811,Control,0.0,0.25,0.01995262314968879,0,0.39761054400150897
26,812,Control,0.0,0.25,0.025118864315095794,1,0.5189031339996291
26,813,Control,0.0,0.25,0.01995262314968879,0,0.5300522940015071
26,814,Equal,0.1,0.1,0.025118864315095794,1,0.6932279089996882
26,815,Decrease,0.25,0.1,0.025118864315095794,1,0.7054053240008216
26,816,Decrease,0.25,0.1,0.01995262314968879,0,0.5799742460003472
26,817,Decrease,0.25,0.1,0.025118864315095794,1,0.4958193399997981
26,818,Equal,0.1,0.1,0.01995262314968879,0,0.5311757590006891
26,819,Equal,0.1,0.1,0.025118864315095794,0,0.4620974469999055
26,820,Equal,0.1,0.1,0.031622776601683784,0,0.7306997160012543
26,821,Decrease,0.25,0.1,0.01995262314968879,0,0.37041494699951727
26,822,Decrease,0.25,0.1,0.025118864315095794,1,0.4537602860000334
26,823,Equal,0.1,0.1,0.03981071705534971,1,0.4217928269990807
26,824,Equal,0.1,0.1,0.031622776601683784,1,0.42499745399982203
26,825,Decrease,0.25,0.1,0.01995262314968879,0,0.41141497699936735
26,826,Decrease,0.25,0.1,0.025118864315095794,0,0.8865728450000461
26,827,Decrease,0.25,0.1,0.031622776601683784,1,0.47357505899890384
26,828,Decrease,0.25,0.1,0.02511886431509579,0,0.39694080099980056
26,829,Decrease,0.25,0.1,0.031622776601683784,1,0.4078399169993645
26,830,Decrease,0.25,0.1,0.02511886431509579,0,0.4672247109992895
26,831,Decrease,0.25,0.1,0.031622776601683784,1,0.4794600020013604
26,832,Decrease,0.25,0.1,0.02511886431509579,1,0.5779562999996415
26,833,Decrease,0.25,0.1,0.01995262314968879,0,0.4194317880010203
26,834,Decrease,0.25,0.1,0.025118864315095794,0,0.46807540099871403
26,835,Decrease,0.25,0.1,0.031622776601683784,0,0.40720853799939505
26,836,Decrease,0.25,0.1,0.03981071705534971,1,0.3993237910017342
26,837,Decrease,0.25,0.1,0.031622776601683784,1,0.3706600139994407
26,838,Decrease,0.25,0.1,0.02511886431509579,1,0.40463636400090763
26,839,Decrease,0.25,0.1,0.01995262314968879,0,0.4399145169991243
