Participant_Number,Trial_Number,Condition,FC_distal,FC_proximal,Target_Contrast,Correct_Response,Reaction_Time
10,0,Equal,0.25,0.25,0.1,0,0.6379959800005963
10,1,Control,0.0,0.1,0.1,1,0.46773822699924494
10,2,Decrease_null,0.25,0.1,0.1,1,0.45895604100041965
10,3,Control,0.0,0.25,0.1,1,0.5181969820005179
10,4,Decrease,0.25,0.1,0.1,1,0.4955885290000879
10,5,Equal,0.1,0.1,0.1,1,0.4668179969994526
10,6,Equal,0.25,0.25,0.1,1,0.4520053679998455
10,7,Control,0.0,0.1,0.07943282347242815,1,0.41516891899937036
10,8,Decrease_null,0.25,0.1,0.07943282347242815,1,0.5143198670002675
10,9,Control,0.0,0.25,0.07943282347242815,1,0.4385931269998764
10,10,Increase,0.1,0.25,0.1,1,0.32975922799960244
10,11,Decrease,0.25,0.1,0.07943282347242815,1,0.38804708599946025
10,12,Control,0.0,0.25,0.06309573444801932,1,0.36134470500019233
10,13,Control,0.0,0.25,0.05011872336272722,1,0.42744232599943643
10,14,Decrease,0.25,0.1,0.06309573444801932,1,0.3444336590000603
10,15,Equal,0.25,0.25,0.07943282347242815,1,0.2815481049992741
10,16,Decrease,0.25,0.1,0.05011872336272722,1,0.42886605900002905
10,17,Decrease_null,0.25,0.1,0.06309573444801932,1,0.5091370279997136
10,18,Equal,0.25,0.25,0.06309573444801932,1,0.3760887079997701
10,19,Equal,0.1,0.1,0.07943282347242815,1,0.36239524699976755
10,20,Decrease,0.25,0.1,0.03981071705534971,1,0.19748087999960262
10,21,Decrease_null,0.25,0.1,0.05011872336272722,1,0.6966919500000586
10,22,Increase,0.1,0.25,0.07943282347242815,1,0.4440862029996424
10,23,Equal,0.25,0.25,0.05011872336272722,1,0.3670460829998774
10,24,Equal,0.1,0.1,0.06309573444801932,1,0.41127190599945607
10,25,Equal,0.1,0.1,0.05011872336272722,1,0.3664043480002874
10,26,Increase,0.1,0.25,0.06309573444801932,1,0.2487594670001272
10,27,Equal,0.1,0.1,0.03981071705534971,1,0.34790170199994463
10,28,Equal,0.1,0.1,0.031622776601683784,1,0.40383090199975413
10,29,Control,0.0,0.25,0.03981071705534971,1,0.33494919599979767
10,30,Control,0.0,0.25,0.031622776601683784,1,0.32856046500000957
10,31,Control,0.0,0.25,0.02511886431509579,1,0.37161176899917336
10,32,Equal,0.1,0.1,0.02511886431509579,1,0.5738382370000181
10,33,Equal,0.25,0.25,0.03981071705534971,1,0.3691499240003395
10,34,Decrease,0.25,0.1,0.031622776601683784,1,0.32426993699937157
10,35,Control,0.0,0.25,0.01995262314968879,1,0.5753706470004545
10,36,Equal,0.1,0.1,0.01995262314968879,1,0.41048476099967957
10,37,Decrease,0.25,0.1,0.02511886431509579,0,0.5362403159997484
10,38,Equal,0.1,0.1,0.015848931924611127,1,0.4681595269994432
10,39,Control,0.0,0.1,0.06309573444801932,1,0.4139813640003922
10,40,Equal_null,0.1,0.1,0.1,1,0.48048502700021345
10,41,Equal_null,0.1,0.1,0.07943282347242815,1,0.4162121500003195
10,42,Equal,0.1,0.1,0.012589254117941666,0,0.45164271099929465
10,43,Control,0.0,0.25,0.015848931924611127,1,0.4440453199995318
10,44,Control,0.0,0.1,0.05011872336272722,1,0.3680706420000206
10,45,Decrease,0.25,0.1,0.031622776601683784,1,0.37012350399982097
10,46,Decrease,0.25,0.1,0.02511886431509579,0,0.6374893729998803
10,47,Control,0.0,0.1,0.03981071705534971,1,0.36860618100035936
10,48,Equal,0.25,0.25,0.031622776601683784,1,0.4038797909997811
10,49,Increase,0.1,0.25,0.05011872336272722,1,0.34276725700055977
10,50,Equal,0.25,0.25,0.02511886431509579,1,0.3815690049996192
10,51,Decrease_null,0.25,0.1,0.03981071705534971,0,0.368242311999893
10,52,Increase,0.1,0.25,0.03981071705534971,1,0.39437958799953776
10,53,Control,0.0,0.25,0.012589254117941666,0,0.5177153100003125
10,54,Control,0.0,0.25,0.015848931924611127,0,0.43787608000002365
10,55,Decrease,0.25,0.1,0.031622776601683784,1,0.5051312830000825
10,56,Control,0.0,0.1,0.031622776601683784,1,0.42500055599975894
10,57,Control,0.0,0.25,0.01995262314968879,0,0.6533662369993181
10,58,Increase,0.1,0.25,0.031622776601683784,1,0.4315378490000512
10,59,Increase,0.1,0.25,0.02511886431509579,1,0.5216761149995364
10,60,Control_null,0.0,0.25,0.1,1,0.4929851580000104
10,61,Decrease,0.25,0.1,0.02511886431509579,1,0.441298325000389
10,62,Equal,0.1,0.1,0.015848931924611127,0,0.4604795519999243
10,63,Equal,0.1,0.1,0.01995262314968879,1,0.42593497699999716
10,64,Increase_null,0.1,0.25,0.1,1,0.44570771399958176
10,65,Control,0.0,0.25,0.025118864315095794,1,0.3905847209998683
10,66,Control,0.0,0.25,0.01995262314968879,1,0.5302722329997778
10,67,Increase,0.1,0.25,0.01995262314968879,0,0.5141566319998674
10,68,Equal,0.25,0.25,0.01995262314968879,1,0.4463513970003987
10,69,Control,0.0,0.1,0.02511886431509579,1,0.422724248999657
10,70,Equal,0.1,0.1,0.015848931924611127,0,0.49795174799965025
10,71,Decrease,0.25,0.1,0.01995262314968879,0,0.51631222099968
10,72,Equal,0.1,0.1,0.01995262314968879,0,0.5042508020005698
10,73,Increase,0.1,0.25,0.025118864315095794,0,0.43523372300023766
10,74,Equal_null,0.1,0.1,0.06309573444801932,1,0.39028637599949434
10,75,Equal,0.25,0.25,0.015848931924611127,1,0.5470775130006587
10,76,Equal,0.1,0.1,0.025118864315095794,0,0.5989355310002793
10,77,Control,0.0,0.1,0.01995262314968879,0,0.5000933159999477
10,78,Control,0.0,0.25,0.015848931924611127,1,0.4533289880000666
10,79,Control,0.0,0.25,0.012589254117941666,0,0.4404533739998442
10,80,Control,0.0,0.1,0.025118864315095794,1,0.4487560569996276
10,81,Control,0.0,0.1,0.01995262314968879,1,0.5957548850001331
10,82,Equal,0.25,0.25,0.012589254117941666,0,0.4521335889994589
10,83,Control,0.0,0.1,0.015848931924611127,1,0.4703188659996158
10,84,Decrease_null,0.25,0.1,0.05011872336272721,1,0.47360461600055714
10,85,Control,0.0,0.25,0.015848931924611127,0,0.3965724629997567
10,86,Equal,0.1,0.1,0.031622776601683784,1,0.44774056900041614
10,87,Decrease,0.25,0.1,0.025118864315095794,0,0.41102519600008236
10,88,Equal,0.25,0.25,0.015848931924611127,1,0.4240654730001552
10,89,Equal_null,0.1,0.1,0.05011872336272722,1,0.3732806680000067
10,90,Control,0.0,0.1,0.012589254117941666,0,0.46520996799972636
10,91,Equal_null,0.1,0.1,0.03981071705534971,1,0.44173633199989126
10,92,Increase,0.1,0.25,0.031622776601683784,1,0.45276616499995725
10,93,Equal,0.25,0.25,0.012589254117941666,0,0.4461001919999035
10,94,Equal,0.1,0.1,0.02511886431509579,1,0.34522377899975254
10,95,Increase_null,0.1,0.25,0.07943282347242815,1,0.3614944999999352
10,96,Control,0.0,0.1,0.015848931924611127,0,0.4046568359999583
10,97,Equal,0.25,0.25,0.015848931924611127,0,0.42379677500048274
10,98,Equal,0.1,0.1,0.01995262314968879,0,0.4905885690004652
10,99,Equal,0.25,0.25,0.01995262314968879,0,0.5255561970006966
10,100,Control,0.0,0.25,0.01995262314968879,0,0.5444291499998144
10,101,Decrease,0.25,0.1,0.031622776601683784,1,0.5012472870002966
10,102,Increase_null,0.1,0.25,0.06309573444801932,1,0.4177301979998447
10,103,Equal,0.1,0.1,0.025118864315095794,1,0.4227919989998554
10,104,Equal_null,0.25,0.25,0.1,1,0.36805491900031484
10,105,Decrease,0.25,0.1,0.02511886431509579,1,0.3312895139997636
10,106,Increase,0.1,0.25,0.02511886431509579,1,0.36353347200019925
10,107,Equal,0.25,0.25,0.025118864315095794,0,0.518884486999923
10,108,Decrease,0.25,0.1,0.01995262314968879,0,0.6159892159994342
10,109,Control,0.0,0.1,0.01995262314968879,1,0.38706372500018915
10,110,Decrease,0.25,0.1,0.025118864315095794,1,0.4463959350005098
10,111,Decrease_null,0.25,0.1,0.03981071705534971,1,0.49755504400036443
10,112,Control,0.0,0.25,0.025118864315095794,1,0.3965475929999229
10,113,Control,0.0,0.25,0.01995262314968879,0,0.39975700000013603
10,114,Control,0.0,0.1,0.015848931924611127,0,0.4848196699995242
10,115,Decrease,0.25,0.1,0.01995262314968879,0,0.44049573999927816
10,116,Increase,0.1,0.25,0.01995262314968879,0,0.4460430050003197
10,117,Equal,0.1,0.1,0.01995262314968879,0,0.36634354700072436
10,118,Equal,0.1,0.1,0.025118864315095794,0,0.3844061959998726
10,119,Control,0.0,0.25,0.025118864315095794,0,0.36078373300006206
10,120,Decrease,0.25,0.1,0.025118864315095794,1,0.30927231199984817
10,121,Equal,0.1,0.1,0.031622776601683784,1,0.42507545399985247
10,122,Increase,0.1,0.25,0.025118864315095794,1,0.40213968900025066
10,123,Increase,0.1,0.25,0.01995262314968879,0,0.47710994799945183
10,124,Control,0.0,0.25,0.031622776601683784,1,0.3972445280005559
10,125,Equal,0.1,0.1,0.02511886431509579,0,0.41763330300000234
10,126,Decrease,0.25,0.1,0.01995262314968879,1,0.5378350029996
10,127,Control,0.0,0.25,0.02511886431509579,1,0.5249247669999022
10,128,Control,0.0,0.1,0.01995262314968879,0,0.5282017059998907
10,129,Decrease,0.25,0.1,0.015848931924611127,0,0.459177362000446
10,130,Increase,0.1,0.25,0.025118864315095794,1,0.5344903490004072
10,131,Equal_null,0.25,0.25,0.07943282347242815,1,0.44167079299950274
10,132,Decrease,0.25,0.1,0.01995262314968879,0,0.534388664999824
10,133,Equal_null,0.25,0.25,0.06309573444801932,1,0.46670661000007385
10,134,Increase,0.1,0.25,0.01995262314968879,0,0.4149353250004424
10,135,Equal,0.1,0.1,0.031622776601683784,1,0.3914217430001372
10,136,Equal,0.1,0.1,0.02511886431509579,1,0.4026486060001844
10,137,Equal,0.25,0.25,0.031622776601683784,1,0.4348582239999814
10,138,Equal,0.1,0.1,0.01995262314968879,0,0.5741208979998191
10,139,Control,0.0,0.1,0.025118864315095794,0,0.4152033800000936
10,140,Decrease,0.25,0.1,0.025118864315095794,0,0.45847064499957924
10,141,Equal,0.25,0.25,0.02511886431509579,1,0.43844011100009084
10,142,Decrease,0.25,0.1,0.031622776601683784,1,0.44179901400002564
10,143,Increase,0.1,0.25,0.025118864315095794,1,0.4538437880000856
10,144,Equal,0.1,0.1,0.025118864315095794,1,0.47315127499950904
10,145,Increase,0.1,0.25,0.01995262314968879,0,0.43591931900027703
10,146,Equal,0.25,0.25,0.01995262314968879,0,0.4664856190001956
10,147,Increase,0.1,0.25,0.025118864315095794,1,0.4506039999996574
10,148,Equal,0.1,0.1,0.01995262314968879,0,0.5818440279999777
10,149,Decrease,0.25,0.1,0.02511886431509579,0,0.8248942589998478
10,150,Control,0.0,0.25,0.01995262314968879,1,0.514227543000743
10,151,Control,0.0,0.1,0.031622776601683784,1,0.5095880380004019
10,152,Control,0.0,0.25,0.015848931924611127,0,0.4386567279998417
10,153,Control,0.0,0.25,0.01995262314968879,0,0.47353171599934285
10,154,Equal,0.1,0.1,0.025118864315095794,1,0.4297834779999903
10,155,Increase,0.1,0.25,0.01995262314968879,1,0.5131573220005521
10,156,Control_null,0.0,0.1,0.1,1,0.4364130039994052
10,157,Equal,0.25,0.25,0.025118864315095794,1,0.517646958000114
10,158,Equal,0.25,0.25,0.01995262314968879,0,0.4397810580003352
10,159,Increase,0.1,0.25,0.015848931924611127,0,0.42784338500041486
10,160,Equal,0.25,0.25,0.025118864315095794,0,0.5798577089999526
10,161,Control,0.0,0.25,0.025118864315095794,0,0.46320329300033336
10,162,Increase,0.1,0.25,0.01995262314968879,0,0.4345969759997388
10,163,Equal,0.25,0.25,0.031622776601683784,1,0.49956115200075146
10,164,Increase,0.1,0.25,0.025118864315095794,0,0.43074006000006193
10,165,Equal,0.1,0.1,0.01995262314968879,0,0.4080627559997083
10,166,Equal,0.25,0.25,0.02511886431509579,0,0.31499737500053016
10,167,Increase,0.1,0.25,0.031622776601683784,1,0.3982929949997924
10,168,Equal,0.1,0.1,0.025118864315095794,0,0.44249898700036283
10,169,Equal,0.1,0.1,0.031622776601683784,1,0.4457581389997358
10,170,Equal,0.25,0.25,0.031622776601683784,1,0.4331518760000108
10,171,Equal,0.25,0.25,0.02511886431509579,1,0.38022567400003027
10,172,Decrease,0.25,0.1,0.031622776601683784,1,0.4881427310001527
10,173,Increase,0.1,0.25,0.02511886431509579,1,0.4011729069998182
10,174,Equal,0.1,0.1,0.02511886431509579,1,0.4764068929998757
10,175,Control,0.0,0.1,0.02511886431509579,1,0.439703537999776
10,176,Increase,0.1,0.25,0.01995262314968879,0,0.5441276270003073
10,177,Decrease,0.25,0.1,0.02511886431509579,1,0.4353514280001036
10,178,Equal,0.25,0.25,0.01995262314968879,1,0.4362385760005054
10,179,Increase,0.1,0.25,0.025118864315095794,0,0.4797024640001837
10,180,Decrease,0.25,0.1,0.01995262314968879,0,0.49997653199989145
10,181,Decrease,0.25,0.1,0.025118864315095794,0,0.6550123780007198
10,182,Equal,0.1,0.1,0.01995262314968879,0,0.40346263799983717
10,183,Equal,0.1,0.1,0.025118864315095794,1,0.39797507299954304
10,184,Control,0.0,0.1,0.01995262314968879,0,0.5855326950004383
10,185,Control,0.0,0.1,0.025118864315095794,0,0.5817296570003236
10,186,Equal,0.25,0.25,0.015848931924611127,0,0.5186278619994482
10,187,Control,0.0,0.25,0.031622776601683784,1,0.41010723799990956
10,188,Control,0.0,0.1,0.031622776601683784,1,0.38140756099983264
10,189,Equal,0.25,0.25,0.01995262314968879,1,0.5094109089995982
10,190,Equal,0.1,0.1,0.01995262314968879,0,0.6016843199995492
10,191,Control,0.0,0.25,0.02511886431509579,1,0.45176756599994405
10,192,Control,0.0,0.25,0.01995262314968879,0,0.5190904909995879
10,193,Control,0.0,0.25,0.025118864315095794,0,0.4419932049995623
10,194,Equal,0.1,0.1,0.025118864315095794,0,0.45334361200002604
10,195,Control,0.0,0.1,0.02511886431509579,1,0.5216897350001091
10,196,Increase,0.1,0.25,0.031622776601683784,1,0.4636229200004891
10,197,Decrease,0.25,0.1,0.031622776601683784,1,0.3689529310004218
10,198,Decrease,0.25,0.1,0.02511886431509579,0,0.5002870629996323
10,199,Decrease,0.25,0.1,0.031622776601683784,1,0.39572653400045965
10,200,Equal,0.25,0.25,0.015848931924611127,0,0.45525725399966177
10,201,Decrease,0.25,0.1,0.02511886431509579,1,0.3707417440000427
10,202,Increase,0.1,0.25,0.02511886431509579,1,0.48380630599967844
10,203,Decrease,0.25,0.1,0.01995262314968879,0,0.43095964299936895
10,204,Control,0.0,0.25,0.031622776601683784,1,0.4409180640004706
10,205,Equal,0.1,0.1,0.031622776601683784,1,0.44444509300046775
10,206,Decrease_null,0.25,0.1,0.031622776601683784,1,0.4157228039994152
10,207,Equal,0.25,0.25,0.01995262314968879,0,0.5239778169998317
10,208,Increase,0.1,0.25,0.01995262314968879,0,0.608283362000293
10,209,Equal,0.25,0.25,0.025118864315095794,1,0.5093104899997343
10,210,Control_null,0.0,0.1,0.07943282347242815,1,0.3262786610002877
10,211,Control,0.0,0.25,0.02511886431509579,0,0.4095178970001143
10,212,Control,0.0,0.1,0.01995262314968879,0,0.4106096700006674
10,213,Equal,0.25,0.25,0.01995262314968879,0,0.30187393899996096
10,214,Control,0.0,0.1,0.025118864315095794,0,0.3210656889996244
10,215,Decrease,0.25,0.1,0.025118864315095794,0,0.4313730009998835
10,216,Equal,0.1,0.1,0.02511886431509579,1,0.4583423940002831
10,217,Equal,0.25,0.25,0.025118864315095794,1,0.4527155189998666
10,218,Increase,0.1,0.25,0.025118864315095794,1,0.4959818699999232
10,219,Decrease,0.25,0.1,0.031622776601683784,1,0.5551566730000559
10,220,Decrease,0.25,0.1,0.02511886431509579,0,0.6712545070004126
10,221,Equal_null,0.1,0.1,0.031622776601683784,1,0.4433800169999813
10,222,Equal,0.1,0.1,0.01995262314968879,0,0.3849337870005911
10,223,Control,0.0,0.1,0.031622776601683784,1,0.2976496040000711
10,224,Decrease,0.25,0.1,0.031622776601683784,1,0.3578267020002386
10,225,Increase,0.1,0.25,0.01995262314968879,1,0.5260964059998514
10,226,Decrease,0.25,0.1,0.02511886431509579,1,0.4481674189992191
10,227,Increase,0.1,0.25,0.015848931924611127,0,0.5696338210000249
10,228,Control_null,0.0,0.1,0.06309573444801932,1,0.5247975909996967
10,229,Control,0.0,0.1,0.02511886431509579,1,0.5038401270003305
10,230,Control,0.0,0.1,0.01995262314968879,0,0.49107486400043854
10,231,Control,0.0,0.1,0.025118864315095794,0,0.43824513100025797
10,232,Control,0.0,0.25,0.031622776601683784,1,0.4814781840004798
10,233,Control,0.0,0.25,0.02511886431509579,1,0.4446547889992871
10,234,Decrease,0.25,0.1,0.01995262314968879,0,0.5773821559996577
10,235,Control,0.0,0.25,0.01995262314968879,1,0.5111651710003571
10,236,Control,0.0,0.1,0.031622776601683784,1,0.4641928339997321
10,237,Control,0.0,0.25,0.015848931924611127,1,0.5381451200000811
10,238,Control,0.0,0.25,0.012589254117941666,0,0.49873064900020836
10,239,Equal,0.25,0.25,0.01995262314968879,0,0.7106972139999925
10,240,Control,0.0,0.1,0.02511886431509579,0,0.4740679080005066
10,241,Equal,0.25,0.25,0.025118864315095794,1,0.3989298080005028
10,242,Increase,0.1,0.25,0.01995262314968879,0,0.44865160300014395
10,243,Equal_null,0.1,0.1,0.02511886431509579,1,0.3476739389998329
10,244,Increase,0.1,0.25,0.025118864315095794,1,0.5317963110001074
10,245,Equal,0.1,0.1,0.025118864315095794,1,0.3828346979998969
10,246,Decrease,0.25,0.1,0.025118864315095794,0,0.4103932790003455
10,247,Control,0.0,0.1,0.031622776601683784,1,0.379354388000138
10,248,Decrease,0.25,0.1,0.031622776601683784,1,0.4066354490005324
10,249,Decrease,0.25,0.1,0.02511886431509579,1,0.4738314090000131
10,250,Equal,0.25,0.25,0.01995262314968879,1,0.39659988099992916
10,251,Control,0.0,0.25,0.015848931924611127,1,0.48004663699975936
10,252,Decrease,0.25,0.1,0.01995262314968879,0,0.42057782800020505
10,253,Increase,0.1,0.25,0.01995262314968879,0,0.552496323000014
10,254,Control,0.0,0.25,0.012589254117941666,0,0.4929389760000049
10,255,Increase,0.1,0.25,0.025118864315095794,1,0.30289829000048485
10,256,Equal,0.25,0.25,0.015848931924611127,0,0.49815506499999174
10,257,Increase,0.1,0.25,0.01995262314968879,0,0.3945365250001487
10,258,Control,0.0,0.1,0.02511886431509579,1,0.36549475100036943
10,259,Decrease_null,0.25,0.1,0.02511886431509579,1,0.4966470480003409
10,260,Control,0.0,0.25,0.015848931924611127,0,0.5135848150002857
10,261,Equal,0.25,0.25,0.01995262314968879,0,0.5248478549992797
10,262,Increase,0.1,0.25,0.025118864315095794,1,0.48820174999946175
10,263,Increase,0.1,0.25,0.01995262314968879,1,0.45132339900010265
10,264,Equal_null,0.1,0.1,0.01995262314968879,1,0.4556261130001076
10,265,Control_null,0.0,0.25,0.07943282347242815,1,0.4748843180004769
10,266,Control,0.0,0.1,0.01995262314968879,0,0.5031500170007348
10,267,Decrease,0.25,0.1,0.025118864315095794,1,0.4522557419995792
10,268,Control,0.0,0.1,0.025118864315095794,1,0.4444922669999869
10,269,Control_null,0.0,0.1,0.05011872336272722,1,0.4073570609998569
10,270,Equal_null,0.25,0.25,0.05011872336272722,1,0.40878582400000596
10,271,Increase,0.1,0.25,0.015848931924611127,1,0.49178382599984616
10,272,Control,0.0,0.25,0.01995262314968879,0,0.4073330060000444
10,273,Increase,0.1,0.25,0.012589254117941666,0,0.3601401799996893
10,274,Control,0.0,0.25,0.025118864315095794,0,0.3214260419999846
10,275,Decrease,0.25,0.1,0.01995262314968879,1,0.38052305999917735
10,276,Equal,0.25,0.25,0.025118864315095794,1,0.42359700399993017
10,277,Control,0.0,0.25,0.031622776601683784,1,0.4829015329996764
10,278,Control,0.0,0.25,0.02511886431509579,1,0.5421285660004287
10,279,Control,0.0,0.25,0.01995262314968879,0,0.5864307120000376
10,280,Increase,0.1,0.25,0.015848931924611127,0,0.36745849099952466
10,281,Equal,0.1,0.1,0.01995262314968879,1,0.4087616249998973
10,282,Control,0.0,0.25,0.025118864315095794,1,0.3879286780002076
10,283,Increase,0.1,0.25,0.01995262314968879,0,0.42031431999930646
10,284,Decrease,0.25,0.1,0.015848931924611127,0,0.4233970830000544
10,285,Equal,0.25,0.25,0.01995262314968879,0,0.5946046689996365
10,286,Control,0.0,0.1,0.01995262314968879,0,0.507852513999751
10,287,Equal,0.25,0.25,0.025118864315095794,1,0.47089797599983285
10,288,Control,0.0,0.25,0.01995262314968879,0,0.4340699840004163
10,289,Decrease,0.25,0.1,0.01995262314968879,0,0.4062654500003191
10,290,Control,0.0,0.1,0.025118864315095794,1,0.4575595490005071
10,291,Equal,0.1,0.1,0.015848931924611127,0,0.452635040000132
10,292,Decrease_null,0.25,0.1,0.01995262314968879,1,0.4655915630000891
10,293,Increase,0.1,0.25,0.025118864315095794,1,0.6522082110004703
10,294,Equal,0.25,0.25,0.01995262314968879,1,0.4612128449998636
10,295,Equal,0.1,0.1,0.01995262314968879,1,0.4883137960005115
10,296,Control,0.0,0.25,0.025118864315095794,0,0.49765528199986875
10,297,Equal,0.25,0.25,0.015848931924611127,0,0.41274761200020293
10,298,Control,0.0,0.1,0.01995262314968879,1,0.40482363200044347
10,299,Decrease,0.25,0.1,0.025118864315095794,1,0.43220072699932643
10,300,Increase,0.1,0.25,0.01995262314968879,0,0.29242488399995636
10,301,Control_null,0.0,0.1,0.03981071705534971,1,0.3755956489994787
10,302,Control,0.0,0.25,0.031622776601683784,0,0.36259489099938946
10,303,Equal_null,0.25,0.25,0.03981071705534971,1,0.40591412400044646
10,304,Increase,0.1,0.25,0.025118864315095794,0,0.34481708299972524
10,305,Control_null,0.0,0.1,0.031622776601683784,1,0.3101111050000327
10,306,Equal,0.25,0.25,0.01995262314968879,0,0.29013925100025517
10,307,Increase,0.1,0.25,0.031622776601683784,1,0.4416591539993533
10,308,Control,0.0,0.25,0.03981071705534971,1,0.4366968860003908
10,309,Increase,0.1,0.25,0.02511886431509579,0,0.4299688099999912
10,310,Control,0.0,0.1,0.015848931924611127,0,0.40932519100078935
10,311,Equal,0.1,0.1,0.015848931924611127,0,0.3782217540001511
10,312,Control,0.0,0.1,0.01995262314968879,0,0.5495261569994909
10,313,Equal_null,0.1,0.1,0.015848931924611127,1,0.5127237080005216
10,314,Equal,0.1,0.1,0.01995262314968879,1,0.5720670029995745
10,315,Increase,0.1,0.25,0.031622776601683784,1,0.5028788150011678
10,316,Decrease,0.25,0.1,0.01995262314968879,0,0.5473375660003512
10,317,Control,0.0,0.1,0.025118864315095794,0,0.4234074279993365
10,318,Decrease,0.25,0.1,0.025118864315095794,1,0.35526009400018665
10,319,Decrease,0.25,0.1,0.01995262314968879,0,0.3913503280000441
10,320,Equal,0.25,0.25,0.025118864315095794,1,0.47921151999980793
10,321,Equal,0.1,0.1,0.015848931924611127,0,0.4742843250005535
10,322,Decrease,0.25,0.1,0.025118864315095794,1,0.42636274300093646
10,323,Equal,0.25,0.25,0.01995262314968879,0,0.42938722100007
10,324,Decrease,0.25,0.1,0.01995262314968879,1,0.38395063700045284
10,325,Control_null,0.0,0.25,0.06309573444801932,1,0.3546866599990608
10,326,Control,0.0,0.25,0.031622776601683784,1,0.43757960199945956
10,327,Control,0.0,0.25,0.02511886431509579,1,0.4093075869986933
10,328,Equal,0.25,0.25,0.025118864315095794,1,0.35669901599976583
10,329,Control,0.0,0.1,0.031622776601683784,1,0.4007667549994949
10,330,Control,0.0,0.1,0.02511886431509579,0,0.4288035570007196
10,331,Decrease,0.25,0.1,0.015848931924611127,1,0.37504117299977224
10,332,Decrease,0.25,0.1,0.012589254117941666,0,0.4103573119991779
10,333,Equal,0.25,0.25,0.01995262314968879,0,0.5385034889986855
10,334,Increase,0.1,0.25,0.02511886431509579,0,0.4216649829995731
10,335,Control,0.0,0.1,0.031622776601683784,0,0.5027745180013881
10,336,Control,0.0,0.1,0.03981071705534971,1,0.4420846840002923
10,337,Equal,0.1,0.1,0.01995262314968879,0,0.38024445500013826
10,338,Decrease,0.25,0.1,0.015848931924611127,0,0.43933871799890767
10,339,Control,0.0,0.1,0.031622776601683784,1,0.37867555800039554
10,340,Increase,0.1,0.25,0.031622776601683784,1,0.46980340399932174
10,341,Decrease,0.25,0.1,0.01995262314968879,0,0.5048783009988256
10,342,Increase,0.1,0.25,0.02511886431509579,1,0.4547738189994561
10,343,Decrease,0.25,0.1,0.025118864315095794,1,0.44952195799851324
10,344,Decrease,0.25,0.1,0.01995262314968879,0,0.4035006619997148
10,345,Increase,0.1,0.25,0.01995262314968879,1,0.327655176000917
10,346,Control,0.0,0.25,0.01995262314968879,0,0.38408000900017214
10,347,Decrease,0.25,0.1,0.025118864315095794,1,0.2588865760008048
10,348,Control_null,0.0,0.1,0.02511886431509579,1,0.4670738730001176
10,349,Equal_null,0.25,0.25,0.031622776601683784,1,0.3584075250000751
10,350,Increase_null,0.1,0.25,0.05011872336272722,1,0.3697650349986361
10,351,Decrease,0.25,0.1,0.01995262314968879,0,0.3879370149988972
10,352,Control,0.0,0.25,0.025118864315095794,1,0.46399485999972967
10,353,Control,0.0,0.25,0.01995262314968879,1,0.3871039510013361
10,354,Increase,0.1,0.25,0.015848931924611127,0,0.3984069329999329
10,355,Increase,0.1,0.25,0.01995262314968879,1,0.3867702969982929
10,356,Equal,0.25,0.25,0.025118864315095794,0,0.37598146100026497
10,357,Equal,0.25,0.25,0.031622776601683784,1,0.37696365999909176
10,358,Equal,0.25,0.25,0.02511886431509579,0,0.3322706819999439
10,359,Equal,0.25,0.25,0.031622776601683784,1,0.364975852000498
10,360,Control,0.0,0.1,0.02511886431509579,1,0.3823718550011108
10,361,Equal,0.1,0.1,0.025118864315095794,1,0.46212732800086087
10,362,Decrease,0.25,0.1,0.025118864315095794,0,0.5296308519991726
10,363,Control,0.0,0.1,0.01995262314968879,0,0.3498011339997902
10,364,Increase,0.1,0.25,0.015848931924611127,0,0.44780994500069937
10,365,Increase,0.1,0.25,0.01995262314968879,0,0.32316443499985326
10,366,Equal,0.25,0.25,0.02511886431509579,0,0.3743400309995195
10,367,Control,0.0,0.1,0.025118864315095794,1,0.36144773900014115
10,368,Equal,0.1,0.1,0.01995262314968879,1,0.3581152540009498
10,369,Increase,0.1,0.25,0.025118864315095794,1,0.3550800060002075
10,370,Equal,0.25,0.25,0.031622776601683784,1,0.3962968140003795
10,371,Control,0.0,0.25,0.015848931924611127,0,0.3592950149995886
10,372,Equal,0.1,0.1,0.015848931924611127,0,0.39147570000022824
10,373,Equal,0.25,0.25,0.02511886431509579,1,0.44211628599987307
10,374,Equal,0.1,0.1,0.01995262314968879,0,0.435768661000111
10,375,Decrease,0.25,0.1,0.031622776601683784,1,0.3348901779991138
10,376,Equal,0.1,0.1,0.025118864315095794,1,0.36112733100162586
10,377,Equal,0.1,0.1,0.01995262314968879,1,0.42836235799950373
10,378,Control,0.0,0.1,0.01995262314968879,1,0.4475383920016611
10,379,Control,0.0,0.1,0.015848931924611127,1,0.4999311409992515
10,380,Control,0.0,0.25,0.01995262314968879,1,0.4790307479997864
10,381,Equal,0.1,0.1,0.015848931924611127,0,0.42772595299902605
10,382,Control,0.0,0.25,0.015848931924611127,1,0.33581469299861055
10,383,Control,0.0,0.25,0.012589254117941666,0,0.4645496369994362
10,384,Equal,0.25,0.25,0.01995262314968879,0,0.3633547669996915
10,385,Control,0.0,0.1,0.012589254117941666,0,0.4758423209987086
10,386,Decrease,0.25,0.1,0.02511886431509579,1,0.2949942600007489
10,387,Decrease,0.25,0.1,0.01995262314968879,1,0.3601995919998444
10,388,Equal,0.25,0.25,0.025118864315095794,1,0.3484960819987464
10,389,Equal,0.1,0.1,0.01995262314968879,1,0.5197213299998111
10,390,Equal,0.1,0.1,0.015848931924611127,0,0.4495892520008056
10,391,Control,0.0,0.1,0.015848931924611127,1,0.31704621399876487
10,392,Equal,0.1,0.1,0.01995262314968879,0,0.4161740979998285
10,393,Control,0.0,0.1,0.012589254117941666,0,0.4363333099990996
10,394,Equal,0.1,0.1,0.025118864315095794,1,0.36766060699847003
10,395,Control,0.0,0.25,0.015848931924611127,0,0.4516247330011538
10,396,Equal,0.1,0.1,0.01995262314968879,0,0.3409107759998733
10,397,Equal,0.1,0.1,0.025118864315095794,0,0.29610460300136765
10,398,Control,0.0,0.1,0.015848931924611127,1,0.38452186200083815
10,399,Decrease,0.25,0.1,0.015848931924611127,1,0.4433209620001435
10,400,Equal,0.1,0.1,0.031622776601683784,1,0.5416299950011307
10,401,Equal,0.25,0.25,0.01995262314968879,0,0.5768609330007166
10,402,Equal,0.25,0.25,0.025118864315095794,0,0.348248906999288
10,403,Equal,0.25,0.25,0.031622776601683784,1,0.26323285899889015
10,404,Increase,0.1,0.25,0.01995262314968879,0,0.3381320369990135
10,405,Equal,0.25,0.25,0.02511886431509579,1,0.39866542700110585
10,406,Equal,0.25,0.25,0.01995262314968879,0,0.36258481600089
10,407,Decrease,0.25,0.1,0.012589254117941666,0,0.3511571159997402
10,408,Equal,0.1,0.1,0.02511886431509579,0,0.5941674189998594
10,409,Control,0.0,0.1,0.012589254117941666,0,0.5379781450010341
10,410,Increase_null,0.1,0.25,0.03981071705534971,1,0.26147006700011843
10,411,Increase,0.1,0.25,0.025118864315095794,1,0.3508007649998035
10,412,Decrease,0.25,0.1,0.015848931924611127,0,0.6900586410010874
10,413,Control,0.0,0.25,0.01995262314968879,0,0.31507141799920646
10,414,Equal,0.25,0.25,0.025118864315095794,1,0.35834745800093515
10,415,Control,0.0,0.1,0.015848931924611127,0,0.38541475600140984
10,416,Increase,0.1,0.25,0.01995262314968879,0,0.3166841940001177
10,417,Control,0.0,0.1,0.01995262314968879,0,0.38392632300019613
10,418,Control,0.0,0.25,0.025118864315095794,1,0.31604151600004116
10,419,Increase,0.1,0.25,0.025118864315095794,1,0.32003621900003054
10,420,Decrease,0.25,0.1,0.01995262314968879,0,0.3383140160003677
10,421,Control,0.0,0.25,0.01995262314968879,0,0.42264856200017675
10,422,Increase,0.1,0.25,0.01995262314968879,0,0.3827661480008828
10,423,Increase,0.1,0.25,0.025118864315095794,1,0.2176300610008184
10,424,Increase,0.1,0.25,0.01995262314968879,0,0.33084530599990103
10,425,Decrease,0.25,0.1,0.025118864315095794,1,0.2783220450000954
10,426,Control,0.0,0.25,0.025118864315095794,1,0.42361329999948794
10,427,Equal,0.1,0.1,0.031622776601683784,1,0.3228508000011061
10,428,Control,0.0,0.1,0.025118864315095794,1,0.33387776900053723
10,429,Control,0.0,0.1,0.01995262314968879,0,0.3208384860008664
10,430,Decrease,0.25,0.1,0.01995262314968879,0,0.5564166040003329
10,431,Control,0.0,0.25,0.01995262314968879,1,0.39240464700014854
10,432,Equal,0.25,0.25,0.01995262314968879,0,0.35674684299920045
10,433,Increase,0.1,0.25,0.025118864315095794,1,0.46314118500049517
10,434,Equal,0.25,0.25,0.025118864315095794,1,0.3230247319988848
10,435,Decrease,0.25,0.1,0.025118864315095794,1,0.31520782799998415
10,436,Equal,0.1,0.1,0.02511886431509579,0,0.42245419699975173
10,437,Control,0.0,0.1,0.025118864315095794,1,0.3515599080001266
10,438,Equal,0.25,0.25,0.01995262314968879,0,0.3788906219997443
10,439,Control,0.0,0.25,0.015848931924611127,0,0.33316345200000796
10,440,Decrease,0.25,0.1,0.01995262314968879,0,0.38412162300119235
10,441,Decrease,0.25,0.1,0.025118864315095794,1,0.3312816540001222
10,442,Increase,0.1,0.25,0.01995262314968879,0,0.4865352670003631
10,443,Equal,0.25,0.25,0.025118864315095794,0,0.4895566510003846
10,444,Increase,0.1,0.25,0.025118864315095794,1,0.31810389299971575
10,445,Control,0.0,0.25,0.01995262314968879,0,0.30903813899931265
10,446,Equal,0.25,0.25,0.031622776601683784,1,0.37292413499926624
10,447,Control,0.0,0.1,0.01995262314968879,0,0.4561272309983906
10,448,Equal,0.1,0.1,0.031622776601683784,1,0.4306418020005367
10,449,Control,0.0,0.1,0.025118864315095794,1,0.32986167699891666
10,450,Control,0.0,0.25,0.025118864315095794,1,0.4509774969992577
10,451,Increase,0.1,0.25,0.01995262314968879,0,0.3902829610015033
10,452,Control,0.0,0.25,0.01995262314968879,1,0.2321951510002691
10,453,Equal,0.25,0.25,0.02511886431509579,1,0.3239518650007085
10,454,Control,0.0,0.25,0.015848931924611127,0,0.44794571199963684
10,455,Control,0.0,0.25,0.01995262314968879,1,0.49105265099933604
10,456,Control,0.0,0.1,0.01995262314968879,0,0.39805044399872713
10,457,Equal,0.1,0.1,0.02511886431509579,1,0.4502108460001182
10,458,Control,0.0,0.1,0.025118864315095794,1,0.4794727780008543
10,459,Equal,0.25,0.25,0.01995262314968879,0,0.3762127660011174
10,460,Equal,0.1,0.1,0.01995262314968879,0,0.48456532199998037
10,461,Decrease,0.25,0.1,0.01995262314968879,1,0.2851375760001247
10,462,Increase,0.1,0.25,0.025118864315095794,0,0.34539887699975225
10,463,Control,0.0,0.1,0.01995262314968879,1,0.448469060998832
10,464,Control,0.0,0.25,0.015848931924611127,0,0.32354038400080753
10,465,Increase,0.1,0.25,0.031622776601683784,1,0.35070204800103966
10,466,Increase,0.1,0.25,0.02511886431509579,0,0.36204011999871
10,467,Increase,0.1,0.25,0.031622776601683784,1,0.2771343860003981
10,468,Increase,0.1,0.25,0.02511886431509579,0,0.30427225199855457
10,469,Control,0.0,0.25,0.01995262314968879,0,0.26769877599872416
10,470,Control,0.0,0.25,0.025118864315095794,0,0.4173623620008584
10,471,Equal,0.25,0.25,0.025118864315095794,0,0.4388170700003684
10,472,Equal,0.25,0.25,0.031622776601683784,1,0.3112061449992325
10,473,Control,0.0,0.25,0.031622776601683784,1,0.3943080450007983
10,474,Decrease,0.25,0.1,0.015848931924611127,0,0.41028381700016325
10,475,Control,0.0,0.25,0.02511886431509579,1,0.4053967880008713
10,476,Control,0.0,0.1,0.015848931924611127,0,0.3829163480004354
10,477,Control,0.0,0.1,0.01995262314968879,0,0.329958512000303
10,478,Increase,0.1,0.25,0.031622776601683784,1,0.23637829400104238
10,479,Increase_null,0.1,0.25,0.031622776601683784,1,0.4471869209992292
10,480,Equal,0.25,0.25,0.02511886431509579,1,0.3634639629999583
10,481,Control,0.0,0.1,0.025118864315095794,1,0.4145749319995957
10,482,Equal,0.1,0.1,0.025118864315095794,1,0.3057464739995339
10,483,Decrease,0.25,0.1,0.01995262314968879,0,0.38906941800087225
10,484,Control,0.0,0.1,0.01995262314968879,1,0.36042989199995645
10,485,Control,0.0,0.25,0.01995262314968879,0,0.4516682690009475
10,486,Equal,0.1,0.1,0.01995262314968879,0,0.39196009899933415
10,487,Decrease,0.25,0.1,0.025118864315095794,1,0.3081111730007251
10,488,Control,0.0,0.1,0.015848931924611127,1,0.36592589899919403
10,489,Control_null,0.0,0.25,0.05011872336272722,1,0.3290976539992698
10,490,Control,0.0,0.25,0.025118864315095794,1,0.36910626300050353
10,491,Control,0.0,0.25,0.01995262314968879,0,0.33234504100073536
10,492,Decrease,0.25,0.1,0.01995262314968879,1,0.3178307859998313
10,493,Control_null,0.0,0.25,0.03981071705534971,1,0.3050413529999787
10,494,Control,0.0,0.25,0.025118864315095794,1,0.3559678330002498
10,495,Equal,0.1,0.1,0.025118864315095794,1,0.3671632650002721
10,496,Decrease,0.25,0.1,0.015848931924611127,1,0.3062276189994009
10,497,Control,0.0,0.1,0.012589254117941666,0,0.5655053710015636
10,498,Control,0.0,0.1,0.015848931924611127,0,0.7618923549998726
10,499,Increase,0.1,0.25,0.02511886431509579,0,0.3979593490003026
10,500,Control,0.0,0.1,0.01995262314968879,0,0.34680025299894623
10,501,Equal,0.25,0.25,0.01995262314968879,0,0.37133248200007074
10,502,Equal_null,0.1,0.1,0.012589254117941666,1,0.32632096099951013
10,503,Increase,0.1,0.25,0.031622776601683784,0,0.4865905600017868
10,504,Control,0.0,0.1,0.025118864315095794,0,0.3390490419988055
10,505,Equal_null,0.1,0.1,0.009999999999999995,1,0.29105622099996253
10,506,Increase,0.1,0.25,0.03981071705534971,1,0.2622875249999197
10,507,Decrease,0.25,0.1,0.012589254117941666,0,0.45657776999905764
10,508,Control,0.0,0.25,0.01995262314968879,1,0.45163036699887016
10,509,Control,0.0,0.25,0.015848931924611127,0,0.41492398399896047
10,510,Equal,0.1,0.1,0.01995262314968879,0,0.37008644999878015
10,511,Equal,0.25,0.25,0.025118864315095794,1,0.32417805200020666
10,512,Equal,0.1,0.1,0.025118864315095794,1,0.39319781199992576
10,513,Decrease,0.25,0.1,0.015848931924611127,0,0.38222715300071286
10,514,Increase_null,0.1,0.25,0.02511886431509579,1,0.334898000000976
10,515,Control,0.0,0.25,0.01995262314968879,0,0.33007695200103626
10,516,Increase,0.1,0.25,0.031622776601683784,1,0.32216928400157485
10,517,Equal_null,0.25,0.25,0.02511886431509579,1,0.34097159399971133
10,518,Increase,0.1,0.25,0.02511886431509579,1,0.302668841999548
10,519,Control,0.0,0.25,0.025118864315095794,0,0.29818871899988153
10,520,Decrease,0.25,0.1,0.01995262314968879,0,0.37293766499897174
10,521,Control,0.0,0.25,0.031622776601683784,1,0.3120356730014464
10,522,Equal,0.1,0.1,0.01995262314968879,0,0.3323573609995947
10,523,Equal,0.25,0.25,0.01995262314968879,1,0.39151473000129045
10,524,Control,0.0,0.25,0.02511886431509579,1,0.3703430599998683
10,525,Decrease,0.25,0.1,0.025118864315095794,1,0.3597758489995613
10,526,Control,0.0,0.1,0.031622776601683784,1,0.5630967430006422
10,527,Control_null,0.0,0.25,0.031622776601683784,1,0.4432518749999872
10,528,Control,0.0,0.25,0.01995262314968879,0,0.42262860299888416
10,529,Increase_null,0.1,0.25,0.01995262314968879,1,0.3035317239991855
10,530,Decrease,0.25,0.1,0.01995262314968879,1,0.48291948800033424
10,531,Equal,0.25,0.25,0.015848931924611127,0,0.3402044750000641
10,532,Equal,0.25,0.25,0.01995262314968879,1,0.3352181779991952
10,533,Increase,0.1,0.25,0.01995262314968879,0,0.706126855000548
10,534,Equal,0.1,0.1,0.025118864315095794,0,0.4545453099999577
10,535,Equal,0.1,0.1,0.031622776601683784,1,0.25769646700064186
10,536,Decrease_null,0.25,0.1,0.015848931924611127,1,0.5000548560001334
10,537,Equal,0.1,0.1,0.02511886431509579,0,0.6000882320004166
10,538,Control,0.0,0.25,0.025118864315095794,1,0.389252397000746
10,539,Decrease,0.25,0.1,0.015848931924611127,0,0.5275544560008711
10,540,Decrease,0.25,0.1,0.01995262314968879,1,0.5125441729996965
10,541,Control,0.0,0.1,0.02511886431509579,1,0.43556819900004484
10,542,Control,0.0,0.1,0.01995262314968879,0,0.43602901799931715
10,543,Increase,0.1,0.25,0.025118864315095794,1,0.4483340520000638
10,544,Control,0.0,0.1,0.025118864315095794,0,0.44094759600011457
10,545,Equal,0.25,0.25,0.015848931924611127,0,0.42856714600020496
10,546,Decrease,0.25,0.1,0.015848931924611127,0,0.31175489499946707
10,547,Control,0.0,0.1,0.031622776601683784,1,0.3548972330008837
10,548,Increase,0.1,0.25,0.01995262314968879,0,0.4152003599992895
10,549,Equal,0.1,0.1,0.031622776601683784,1,0.3304080670004623
10,550,Equal,0.1,0.1,0.02511886431509579,1,0.36556054599896015
10,551,Decrease,0.25,0.1,0.01995262314968879,1,0.49674744900039514
10,552,Increase,0.1,0.25,0.025118864315095794,1,0.4529494859998522
10,553,Equal,0.25,0.25,0.01995262314968879,0,0.3900851939997665
10,554,Control,0.0,0.1,0.02511886431509579,0,0.41721759400024894
10,555,Control,0.0,0.25,0.01995262314968879,0,0.42555013699893607
10,556,Equal_null,0.1,0.1,0.00794328234724281,1,0.4282692519991542
10,557,Equal,0.25,0.25,0.025118864315095794,1,0.49482355899999675
10,558,Equal,0.25,0.25,0.01995262314968879,0,0.3699675459993159
10,559,Decrease,0.25,0.1,0.015848931924611127,0,0.33364178800002264
10,560,Equal,0.1,0.1,0.01995262314968879,1,0.3524105479991704
10,561,Control_null,0.0,0.25,0.02511886431509579,1,0.355122269000276
10,562,Control,0.0,0.25,0.025118864315095794,0,0.5588961579996976
10,563,Equal,0.25,0.25,0.025118864315095794,1,0.371004496999376
10,564,Equal,0.25,0.25,0.01995262314968879,0,0.2226289940008428
10,565,Decrease,0.25,0.1,0.01995262314968879,0,0.3842837860011059
10,566,Control,0.0,0.1,0.031622776601683784,1,0.35231610299888416
10,567,Decrease,0.25,0.1,0.025118864315095794,1,0.2194014739998238
10,568,Increase,0.1,0.25,0.01995262314968879,0,0.3887731220002024
10,569,Equal,0.1,0.1,0.015848931924611127,1,0.42403529999864986
10,570,Control_null,0.0,0.25,0.01995262314968879,1,0.37020965100055037
10,571,Equal,0.25,0.25,0.025118864315095794,0,0.42150161400059005
10,572,Decrease,0.25,0.1,0.01995262314968879,0,0.416765668998778
10,573,Increase,0.1,0.25,0.025118864315095794,1,0.28341650199945434
10,574,Decrease,0.25,0.1,0.025118864315095794,0,0.3859986739989836
10,575,Control,0.0,0.25,0.031622776601683784,1,0.3812596529987786
10,576,Equal,0.1,0.1,0.012589254117941666,0,0.616394594000667
10,577,Equal,0.25,0.25,0.031622776601683784,1,0.4595570929996029
10,578,Equal,0.1,0.1,0.015848931924611127,1,0.5198926119992393
10,579,Increase,0.1,0.25,0.01995262314968879,0,0.6479405039990525
10,580,Control,0.0,0.25,0.02511886431509579,1,0.4910266650003905
10,581,Equal,0.1,0.1,0.012589254117941666,0,0.444346852000308
10,582,Decrease,0.25,0.1,0.031622776601683784,1,0.5195465879987751
10,583,Increase,0.1,0.25,0.025118864315095794,1,0.4814807500006282
10,584,Equal_null,0.25,0.25,0.01995262314968879,1,0.572782664999977
10,585,Equal,0.25,0.25,0.02511886431509579,1,0.5519557249990612
10,586,Equal,0.25,0.25,0.01995262314968879,0,0.45935192500110134
10,587,Control,0.0,0.25,0.01995262314968879,0,0.5513677550006832
10,588,Control,0.0,0.1,0.02511886431509579,1,0.5076881490003871
10,589,Equal,0.25,0.25,0.025118864315095794,0,0.5940488220003317
10,590,Equal,0.1,0.1,0.015848931924611127,1,0.45007036000060907
10,591,Control,0.0,0.25,0.025118864315095794,1,0.44494581899925834
10,592,Increase,0.1,0.25,0.01995262314968879,0,0.39731944699997257
10,593,Control,0.0,0.25,0.01995262314968879,0,0.44851234700036
10,594,Control,0.0,0.1,0.01995262314968879,0,0.3939889579996816
10,595,Equal,0.25,0.25,0.031622776601683784,1,0.31629549500030407
10,596,Decrease,0.25,0.1,0.02511886431509579,1,0.5033156229983433
10,597,Decrease,0.25,0.1,0.01995262314968879,0,0.3222939690003841
10,598,Increase,0.1,0.25,0.025118864315095794,0,0.3744662999997672
10,599,Control,0.0,0.1,0.025118864315095794,1,0.4325635819986928
10,600,Equal_null,0.25,0.25,0.015848931924611127,1,0.3235832959999243
10,601,Equal,0.25,0.25,0.02511886431509579,0,0.5268369620007434
10,602,Increase,0.1,0.25,0.031622776601683784,1,0.4226492790003249
10,603,Equal,0.1,0.1,0.012589254117941666,0,0.30585903599967423
10,604,Equal,0.1,0.1,0.015848931924611127,1,0.32523715699971945
10,605,Decrease,0.25,0.1,0.025118864315095794,0,0.32859062799980165
10,606,Equal,0.25,0.25,0.031622776601683784,1,0.3319332860010036
10,607,Equal,0.25,0.25,0.02511886431509579,1,0.342821558999276
10,608,Increase,0.1,0.25,0.02511886431509579,1,0.36303078300079505
10,609,Control,0.0,0.25,0.025118864315095794,1,0.36724911499914015
10,610,Increase,0.1,0.25,0.01995262314968879,1,0.36280594000163546
10,611,Increase_null,0.1,0.25,0.015848931924611127,1,0.42059779400005937
10,612,Control,0.0,0.25,0.01995262314968879,0,0.3916429370001424
10,613,Control_null,0.0,0.1,0.01995262314968879,1,0.3601265039997088
10,614,Control,0.0,0.1,0.01995262314968879,1,0.41912788300032844
10,615,Equal,0.25,0.25,0.01995262314968879,1,0.396355164999477
10,616,Control,0.0,0.25,0.025118864315095794,1,0.34370877999936056
10,617,Equal,0.25,0.25,0.015848931924611127,0,0.41881841299982625
10,618,Decrease,0.25,0.1,0.031622776601683784,1,0.3738492319989746
10,619,Equal,0.25,0.25,0.01995262314968879,1,0.3448441720011033
10,620,Decrease,0.25,0.1,0.02511886431509579,1,0.3962732389991288
10,621,Control,0.0,0.1,0.015848931924611127,0,0.5926003530003072
10,622,Equal,0.25,0.25,0.015848931924611127,0,0.4764844279998215
10,623,Equal_null,0.1,0.1,0.0063095734448019285,1,0.46442777700031
10,624,Equal,0.25,0.25,0.01995262314968879,0,0.3682558370001061
10,625,Control,0.0,0.1,0.01995262314968879,1,0.3632508980008424
10,626,Equal,0.1,0.1,0.012589254117941666,0,0.38734021700111043
10,627,Control_null,0.0,0.25,0.015848931924611127,1,0.33564969199869665
10,628,Equal,0.1,0.1,0.015848931924611127,0,0.30375897899830306
10,629,Decrease,0.25,0.1,0.01995262314968879,1,0.32381597499988857
10,630,Control_null,0.0,0.1,0.015848931924611127,1,0.34316731199942296
10,631,Control,0.0,0.25,0.01995262314968879,0,0.33028321900019364
10,632,Control_null,0.0,0.1,0.012589254117941666,1,0.3655369879998034
10,633,Increase,0.1,0.25,0.015848931924611127,0,0.3445641570015141
10,634,Equal,0.1,0.1,0.01995262314968879,0,0.4199315839996416
10,635,Equal,0.25,0.25,0.025118864315095794,0,0.296528714001397
10,636,Control,0.0,0.1,0.015848931924611127,0,0.18182282900124846
10,637,Equal,0.25,0.25,0.031622776601683784,0,0.14924365099977877
10,638,Control,0.0,0.25,0.025118864315095794,0,0.29650521499934257
10,639,Control,0.0,0.1,0.01995262314968879,0,0.2978014170003007
10,640,Increase,0.1,0.25,0.01995262314968879,0,0.3889909700010321
10,641,Decrease,0.25,0.1,0.015848931924611127,0,0.3102580939994368
10,642,Control,0.0,0.25,0.031622776601683784,1,0.4095171710014256
10,643,Equal,0.25,0.25,0.03981071705534971,1,0.3325339340008213
10,644,Equal,0.25,0.25,0.031622776601683784,1,0.32743891300015093
10,645,Control,0.0,0.1,0.025118864315095794,1,0.31591061300059664
10,646,Increase,0.1,0.25,0.025118864315095794,1,0.2712450609997177
10,647,Equal,0.1,0.1,0.025118864315095794,1,0.34644634899996163
10,648,Equal,0.1,0.1,0.01995262314968879,0,0.6067199200006144
10,649,Control_null,0.0,0.25,0.012589254117941666,1,0.49171057999956247
10,650,Equal,0.25,0.25,0.02511886431509579,0,0.40376499599915405
10,651,Equal,0.25,0.25,0.031622776601683784,1,0.23105406399918138
10,652,Decrease,0.25,0.1,0.01995262314968879,0,0.35920810399875336
10,653,Control,0.0,0.1,0.01995262314968879,1,0.3623984349997045
10,654,Control,0.0,0.25,0.02511886431509579,1,0.45956794300036563
10,655,Equal_null,0.25,0.25,0.012589254117941666,1,0.31877949299996544
10,656,Decrease,0.25,0.1,0.025118864315095794,0,0.3215024359997187
10,657,Equal,0.1,0.1,0.025118864315095794,1,0.40517824000016844
10,658,Increase,0.1,0.25,0.01995262314968879,0,0.5521814260009705
10,659,Increase,0.1,0.25,0.025118864315095794,1,0.4355376700004854
10,660,Equal,0.1,0.1,0.01995262314968879,0,0.3825053519994981
10,661,Control,0.0,0.1,0.015848931924611127,0,0.3316274240005441
10,662,Increase,0.1,0.25,0.01995262314968879,0,0.3191202139987581
10,663,Decrease_null,0.25,0.1,0.012589254117941666,1,0.42333359100121015
10,664,Equal,0.1,0.1,0.025118864315095794,1,0.33045781400142005
10,665,Control_null,0.0,0.1,0.009999999999999995,1,0.3877356120010518
10,666,Decrease,0.25,0.1,0.031622776601683784,1,0.31899842500024533
10,667,Equal_null,0.25,0.25,0.009999999999999995,1,0.4000892809999641
10,668,Increase,0.1,0.25,0.025118864315095794,0,0.395153763000053
10,669,Decrease,0.25,0.1,0.02511886431509579,1,0.4621378920001007
10,670,Control,0.0,0.1,0.01995262314968879,0,0.3773612730001332
10,671,Equal,0.1,0.1,0.01995262314968879,0,0.5018644930005394
10,672,Equal,0.25,0.25,0.02511886431509579,0,0.5060540350004885
10,673,Increase,0.1,0.25,0.031622776601683784,0,0.4852021489987237
10,674,Equal,0.1,0.1,0.025118864315095794,1,0.3370222140001715
10,675,Control,0.0,0.25,0.01995262314968879,0,0.301399104999291
10,676,Equal,0.25,0.25,0.031622776601683784,1,0.2927308809994429
10,677,Control,0.0,0.25,0.025118864315095794,1,0.2879150759999902
10,678,Equal,0.25,0.25,0.02511886431509579,1,0.3051320750000741
10,679,Control,0.0,0.25,0.01995262314968879,0,0.45233570900018094
10,680,Equal,0.1,0.1,0.01995262314968879,1,0.4226399070012121
10,681,Equal,0.1,0.1,0.015848931924611127,0,0.36960461099988606
10,682,Equal,0.25,0.25,0.01995262314968879,0,0.4038495580007293
10,683,Equal,0.25,0.25,0.025118864315095794,1,0.32713839399912104
10,684,Control,0.0,0.1,0.025118864315095794,1,0.3397210580005776
10,685,Increase,0.1,0.25,0.03981071705534971,1,0.30228038799941714
10,686,Equal,0.25,0.25,0.01995262314968879,0,0.3297132290008449
10,687,Equal,0.25,0.25,0.025118864315095794,1,0.3093388870001945
10,688,Decrease,0.25,0.1,0.01995262314968879,0,0.45748680100041383
10,689,Control,0.0,0.1,0.01995262314968879,1,0.36097820500071975
10,690,Equal,0.1,0.1,0.01995262314968879,0,0.45228833300097904
10,691,Decrease,0.25,0.1,0.025118864315095794,0,0.7087456949993793
10,692,Increase,0.1,0.25,0.031622776601683784,1,0.3439299170004233
10,693,Decrease,0.25,0.1,0.031622776601683784,1,0.3856297040001664
10,694,Decrease,0.25,0.1,0.02511886431509579,1,0.4129609379997419
10,695,Control,0.0,0.1,0.015848931924611127,0,0.3680791329989006
10,696,Decrease,0.25,0.1,0.01995262314968879,1,0.30763029599984293
10,697,Equal,0.1,0.1,0.025118864315095794,1,0.4397176269994816
10,698,Control,0.0,0.1,0.01995262314968879,1,0.3636844279990328
10,699,Control_null,0.0,0.25,0.009999999999999995,1,0.399726143999942
10,700,Decrease,0.25,0.1,0.015848931924611127,0,0.3622763089988439
10,701,Equal,0.1,0.1,0.01995262314968879,0,0.37436048800009303
10,702,Control,0.0,0.1,0.015848931924611127,0,0.3428419820011186
10,703,Equal,0.25,0.25,0.01995262314968879,0,0.24969801000042935
10,704,Control,0.0,0.1,0.01995262314968879,0,0.3468621700012591
10,705,Control,0.0,0.25,0.025118864315095794,1,0.39024486699963745
10,706,Equal,0.25,0.25,0.025118864315095794,1,0.39242598400051065
10,707,Control,0.0,0.25,0.01995262314968879,0,0.33146382799895946
10,708,Increase,0.1,0.25,0.02511886431509579,1,0.37459385199872486
10,709,Equal,0.1,0.1,0.025118864315095794,1,0.3608955630006676
10,710,Equal,0.1,0.1,0.01995262314968879,0,0.4131471149994468
10,711,Control_null,0.0,0.1,0.00794328234724281,1,0.4589339710000786
10,712,Control,0.0,0.1,0.025118864315095794,0,0.3904971209994983
10,713,Increase,0.1,0.25,0.01995262314968879,0,0.511860456001159
10,714,Control,0.0,0.25,0.025118864315095794,1,0.3228179170000658
10,715,Control,0.0,0.1,0.031622776601683784,1,0.21988591099943733
10,716,Control,0.0,0.1,0.02511886431509579,0,0.35916885400001775
10,717,Increase,0.1,0.25,0.025118864315095794,0,0.5193858099992212
10,718,Increase,0.1,0.25,0.031622776601683784,1,0.35462328200082993
10,719,Control,0.0,0.25,0.01995262314968879,0,0.3799564279997867
10,720,Control,0.0,0.1,0.031622776601683784,0,0.4158867370006192
10,721,Control,0.0,0.1,0.03981071705534971,1,0.2109208279998711
10,722,Equal,0.25,0.25,0.01995262314968879,1,0.4782204860002821
10,723,Increase,0.1,0.25,0.02511886431509579,1,0.4173820470005012
10,724,Control,0.0,0.25,0.025118864315095794,1,0.4522991539997747
10,725,Control,0.0,0.25,0.01995262314968879,1,0.4396042259995738
10,726,Equal,0.1,0.1,0.025118864315095794,0,0.43714618900048663
10,727,Decrease,0.25,0.1,0.01995262314968879,0,0.33780285799912235
10,728,Control,0.0,0.25,0.015848931924611127,1,0.3312590599998657
10,729,Decrease_null,0.25,0.1,0.009999999999999995,1,0.32649968000077934
10,730,Control,0.0,0.25,0.012589254117941666,0,0.3617152980004903
10,731,Decrease_null,0.25,0.1,0.00794328234724281,1,0.36150441999961913
10,732,Control,0.0,0.25,0.015848931924611127,0,0.2769041070005187
10,733,Control,0.0,0.1,0.031622776601683784,1,0.2941808059986215
10,734,Equal,0.1,0.1,0.031622776601683784,1,0.29744216600010986
10,735,Equal,0.25,0.25,0.015848931924611127,0,0.37954125099895464
10,736,Control,0.0,0.1,0.02511886431509579,0,0.3508501489995979
10,737,Control_null,0.0,0.25,0.00794328234724281,1,0.3550263380002434
10,738,Decrease,0.25,0.1,0.025118864315095794,1,0.2382401619997836
10,739,Increase_null,0.1,0.25,0.012589254117941666,1,0.4438568790010322
10,740,Equal_null,0.25,0.25,0.00794328234724281,1,0.31008785700032604
10,741,Decrease,0.25,0.1,0.01995262314968879,1,0.38272799299920734
10,742,Equal,0.1,0.1,0.02511886431509579,1,0.49092593000023044
10,743,Increase,0.1,0.25,0.01995262314968879,1,0.3309612659995764
10,744,Control,0.0,0.25,0.01995262314968879,0,0.28619348499887565
10,745,Equal,0.25,0.25,0.01995262314968879,0,0.2894258520009316
10,746,Control,0.0,0.1,0.031622776601683784,1,0.2990058890009095
10,747,Equal,0.25,0.25,0.025118864315095794,1,0.3419746790004865
10,748,Equal,0.25,0.25,0.01995262314968879,1,0.3691561699997692
10,749,Control,0.0,0.25,0.025118864315095794,1,0.5723654560006253
10,750,Equal,0.25,0.25,0.015848931924611127,0,0.43949970100038627
10,751,Decrease,0.25,0.1,0.015848931924611127,0,0.33060616000148
10,752,Decrease,0.25,0.1,0.01995262314968879,1,0.30337545400107047
10,753,Decrease,0.25,0.1,0.015848931924611127,1,0.41153906200088386
10,754,Increase,0.1,0.25,0.015848931924611127,1,0.3901681320003263
10,755,Control,0.0,0.1,0.02511886431509579,1,0.3853466620003019
10,756,Decrease,0.25,0.1,0.012589254117941666,0,0.33741272400038724
10,757,Equal,0.25,0.25,0.01995262314968879,0,0.3965591649994167
10,758,Decrease,0.25,0.1,0.015848931924611127,1,0.4239538609999727
10,759,Equal,0.1,0.1,0.01995262314968879,0,0.4000338810001267
10,760,Control,0.0,0.1,0.01995262314968879,1,0.33923939499982225
10,761,Increase,0.1,0.25,0.012589254117941666,0,0.3024701489994186
10,762,Control_null,0.0,0.1,0.0063095734448019285,1,0.3295033930007776
10,763,Control,0.0,0.1,0.015848931924611127,1,0.33359328899859975
10,764,Equal,0.25,0.25,0.025118864315095794,1,0.38520687500022177
10,765,Control,0.0,0.25,0.01995262314968879,0,0.2858593460005068
10,766,Decrease,0.25,0.1,0.012589254117941666,1,0.4337038069988921
10,767,Equal,0.1,0.1,0.025118864315095794,1,0.5317696740003157
10,768,Equal,0.1,0.1,0.01995262314968879,0,0.2386368070001481
10,769,Decrease,0.25,0.1,0.009999999999999995,0,0.30275164100021357
10,770,Equal,0.1,0.1,0.025118864315095794,1,0.3380652050000208
10,771,Control_null,0.0,0.1,0.005011872336272719,1,0.2703274089999468
10,772,Control,0.0,0.1,0.012589254117941666,0,0.3422643470003095
10,773,Control,0.0,0.25,0.025118864315095794,1,0.4576646580007946
10,774,Decrease,0.25,0.1,0.012589254117941666,0,0.3005268300003081
10,775,Increase,0.1,0.25,0.015848931924611127,0,0.30412008900020737
10,776,Control,0.0,0.1,0.015848931924611127,0,0.3073358919991733
10,777,Equal,0.25,0.25,0.01995262314968879,0,0.19049872800133016
10,778,Control,0.0,0.25,0.01995262314968879,0,0.2907520629996725
10,779,Equal_null,0.1,0.1,0.005011872336272719,0,0.27893434500037984
10,780,Control,0.0,0.25,0.025118864315095794,0,0.136985592000201
10,781,Equal,0.1,0.1,0.01995262314968879,0,0.30040008499963733
10,782,Equal,0.25,0.25,0.025118864315095794,0,0.22899418700035312
10,783,Control,0.0,0.1,0.01995262314968879,0,0.2565787540006568
10,784,Control,0.0,0.1,0.025118864315095794,1,0.3639034600000741
10,785,Control,0.0,0.25,0.031622776601683784,1,0.33305486400058726
10,786,Decrease,0.25,0.1,0.015848931924611127,0,0.36803901699931885
10,787,Decrease,0.25,0.1,0.01995262314968879,0,0.36326775700035796
10,788,Control,0.0,0.1,0.01995262314968879,1,0.3824851169993053
10,789,Increase,0.1,0.25,0.01995262314968879,0,0.39364218399896345
10,790,Equal,0.1,0.1,0.025118864315095794,0,0.35691049300112354
10,791,Control,0.0,0.25,0.02511886431509579,1,0.40113335699970776
10,792,Equal,0.25,0.25,0.031622776601683784,1,0.45400194699868734
10,793,Control,0.0,0.25,0.01995262314968879,0,0.43954292200032796
10,794,Control,0.0,0.1,0.015848931924611127,0,0.37921013300001505
10,795,Equal,0.1,0.1,0.031622776601683784,1,0.44370767200052796
10,796,Equal,0.1,0.1,0.02511886431509579,0,0.4551903270003095
10,797,Equal_null,0.25,0.25,0.0063095734448019285,1,0.37033195500043803
10,798,Equal,0.1,0.1,0.031622776601683784,1,0.2654599879988382
10,799,Equal,0.1,0.1,0.02511886431509579,0,0.316734729000018
10,800,Increase_null,0.1,0.25,0.009999999999999995,1,0.2714340500006074
10,801,Control,0.0,0.1,0.01995262314968879,0,0.3239052460012317
10,802,Equal,0.25,0.25,0.02511886431509579,1,0.3272567320000235
10,803,Equal,0.1,0.1,0.031622776601683784,0,0.29030503800095175
10,804,Control,0.0,0.1,0.025118864315095794,0,0.7658852770000522
10,805,Equal,0.1,0.1,0.03981071705534971,1,0.2905210110002372
10,806,Equal,0.1,0.1,0.031622776601683784,1,0.3167296579995309
10,807,Increase_null,0.1,0.25,0.00794328234724281,1,0.32003809200068645
10,808,Increase_null,0.1,0.25,0.0063095734448019285,1,0.41624041899922304
10,809,Equal_null,0.25,0.25,0.005011872336272719,1,0.4594133120008337
10,810,Increase_null,0.1,0.25,0.005011872336272719,1,0.302728444999957
10,811,Increase,0.1,0.25,0.025118864315095794,1,0.4558289929991588
10,812,Control,0.0,0.25,0.025118864315095794,0,0.29180747799910023
10,813,Equal,0.1,0.1,0.02511886431509579,1,0.33514461999948253
10,814,Increase,0.1,0.25,0.01995262314968879,0,0.3144151599990437
10,815,Control,0.0,0.1,0.031622776601683784,1,0.2856997560011223
10,816,Control,0.0,0.25,0.031622776601683784,1,0.3769257029998698
10,817,Control,0.0,0.1,0.02511886431509579,0,0.3319693199991889
10,818,Control_null,0.0,0.25,0.0063095734448019285,1,0.3292675849988882
10,819,Equal,0.1,0.1,0.01995262314968879,0,0.4413979389992164
10,820,Control_null,0.0,0.25,0.005011872336272719,1,0.34052234800037695
10,821,Control,0.0,0.1,0.031622776601683784,1,0.3006903510013217
10,822,Control,0.0,0.1,0.02511886431509579,0,0.35189874000025156
10,823,Control,0.0,0.1,0.031622776601683784,1,0.3471559299996443
10,824,Increase,0.1,0.25,0.025118864315095794,1,0.4683836859985604
10,825,Increase,0.1,0.25,0.01995262314968879,0,0.35937123599978804
10,826,Increase,0.1,0.25,0.025118864315095794,1,0.2998037440011103
10,827,Increase,0.1,0.25,0.01995262314968879,0,0.40683772999909706
10,828,Increase,0.1,0.25,0.025118864315095794,0,0.35375523699985933
10,829,Equal,0.1,0.1,0.025118864315095794,1,0.3275636359994678
10,830,Equal,0.1,0.1,0.01995262314968879,1,0.4804143210003531
10,831,Equal,0.1,0.1,0.015848931924611127,0,0.4291941000010411
10,832,Equal,0.1,0.1,0.01995262314968879,0,0.4292206849986542
10,833,Increase,0.1,0.25,0.031622776601683784,1,0.31200699100008933
10,834,Increase,0.1,0.25,0.02511886431509579,1,0.5452236439996341
10,835,Increase,0.1,0.25,0.01995262314968879,0,0.46027473699905386
10,836,Increase,0.1,0.25,0.025118864315095794,0,0.3914692769994872
10,837,Increase,0.1,0.25,0.031622776601683784,0,0.40966609600036463
10,838,Control,0.0,0.1,0.02511886431509579,1,0.41970276500069303
10,839,Control,0.0,0.1,0.01995262314968879,0,0.4310499669991259
