Participant_Number,Trial_Number,Condition,FC_distal,FC_proximal,Target_Contrast,Correct_Response,Reaction_Time
13,0,Equal,0.1,0.1,0.1,1,0.5691883400000961
13,1,Decrease,0.25,0.1,0.1,1,0.8285224360000711
13,2,Equal,0.1,0.1,0.07943282347242815,1,0.31140347000007296
13,3,Decrease,0.25,0.1,0.07943282347242815,1,0.49990082299996175
13,4,Equal,0.25,0.25,0.1,1,0.3098899159999746
13,5,Control,0.0,0.1,0.1,1,0.48989959100003944
13,6,Control,0.0,0.25,0.1,1,0.4023084719999588
13,7,Equal,0.1,0.1,0.06309573444801932,1,0.29352235399994697
13,8,Equal,0.1,0.1,0.05011872336272722,1,0.36049188999993476
13,9,Equal,0.1,0.1,0.03981071705534971,1,0.2827375529999472
13,10,Increase,0.1,0.25,0.1,1,0.2860179770000286
13,11,Control,0.0,0.1,0.07943282347242815,1,0.1529941600000484
13,12,Control,0.0,0.25,0.07943282347242815,1,0.3004591320000145
13,13,Control,0.0,0.1,0.06309573444801932,1,0.2714057229999298
13,14,Equal,0.1,0.1,0.031622776601683784,1,0.28286400399997547
13,15,Control,0.0,0.25,0.06309573444801932,1,0.24601953999990656
13,16,Equal_null,0.25,0.25,0.1,1,0.603394752999975
13,17,Equal,0.25,0.25,0.07943282347242815,1,0.2832384539999566
13,18,Equal,0.25,0.25,0.06309573444801932,1,0.31827903099997457
13,19,Decrease,0.25,0.1,0.06309573444801932,1,0.19066770499989616
13,20,Control,0.0,0.1,0.05011872336272722,1,0.2417813209999622
13,21,Equal,0.25,0.25,0.05011872336272722,1,0.2618949259999681
13,22,Decrease,0.25,0.1,0.05011872336272722,1,0.33523082599992904
13,23,Control,0.0,0.25,0.05011872336272722,1,0.4114509050000379
13,24,Decrease,0.25,0.1,0.03981071705534971,1,0.18250168399993072
13,25,Increase,0.1,0.25,0.07943282347242815,1,0.23383012800002234
13,26,Equal,0.25,0.25,0.03981071705534971,1,0.2940330310000263
13,27,Control_null,0.0,0.25,0.1,1,0.6811799769999425
13,28,Decrease,0.25,0.1,0.031622776601683784,1,0.3484680880000042
13,29,Control,0.0,0.25,0.03981071705534971,1,0.3275846389999515
13,30,Increase,0.1,0.25,0.06309573444801932,1,0.39279216699992503
13,31,Increase,0.1,0.25,0.05011872336272722,1,0.2759113710000065
13,32,Decrease,0.25,0.1,0.02511886431509579,1,0.33179327100003775
13,33,Equal,0.25,0.25,0.031622776601683784,1,0.3350894990001052
13,34,Decrease,0.25,0.1,0.01995262314968879,1,0.2834325239999771
13,35,Equal,0.25,0.25,0.02511886431509579,1,0.3485554349999802
13,36,Equal,0.25,0.25,0.01995262314968879,1,0.3117393300000231
13,37,Control,0.0,0.1,0.03981071705534971,1,0.32396900700007336
13,38,Equal,0.1,0.1,0.02511886431509579,1,0.3748232469999948
13,39,Control,0.0,0.1,0.031622776601683784,1,0.3948811500000602
13,40,Control,0.0,0.25,0.031622776601683784,1,0.3033030520000466
13,41,Equal,0.25,0.25,0.015848931924611127,1,0.2817093899999463
13,42,Equal,0.1,0.1,0.01995262314968879,1,0.4289421239999456
13,43,Control,0.0,0.25,0.02511886431509579,1,0.540976201000035
13,44,Equal_null,0.1,0.1,0.1,1,0.4882162540000081
13,45,Equal,0.1,0.1,0.015848931924611127,1,0.4332872140000745
13,46,Equal,0.25,0.25,0.012589254117941666,1,0.45213597700001174
13,47,Decrease_null,0.25,0.1,0.1,1,0.3438732050000226
13,48,Equal,0.1,0.1,0.012589254117941666,1,0.5460568649999686
13,49,Decrease,0.25,0.1,0.015848931924611127,1,0.4450333510000064
13,50,Decrease,0.25,0.1,0.012589254117941666,0,0.4734482179999304
13,51,Decrease_null,0.25,0.1,0.07943282347242815,1,0.596026011000049
13,52,Control,0.0,0.1,0.02511886431509579,1,0.4583330839999462
13,53,Equal,0.1,0.1,0.009999999999999995,1,0.5250351109999656
13,54,Increase,0.1,0.25,0.03981071705534971,1,0.46313190699993356
13,55,Increase,0.1,0.25,0.031622776601683784,1,0.4111495440000681
13,56,Decrease,0.25,0.1,0.015848931924611127,1,0.411491481999974
13,57,Increase,0.1,0.25,0.02511886431509579,1,0.37489672000003793
13,58,Equal,0.25,0.25,0.009999999999999995,1,0.43079924699998173
13,59,Equal_null,0.1,0.1,0.07943282347242815,1,0.4098592569999937
13,60,Equal,0.25,0.25,0.00794328234724281,0,0.46922338399997443
13,61,Control,0.0,0.1,0.01995262314968879,1,0.5513699530000622
13,62,Control,0.0,0.25,0.01995262314968879,1,0.394454951000057
13,63,Control_null,0.0,0.25,0.07943282347242815,0,0.7256580729999769
13,64,Equal,0.1,0.1,0.00794328234724281,0,0.4420532730000559
13,65,Control,0.0,0.1,0.015848931924611127,1,0.6462481820000221
13,66,Control_null,0.0,0.1,0.1,1,0.5634657020000304
13,67,Increase_null,0.1,0.25,0.1,1,0.5322747090000348
13,68,Equal,0.1,0.1,0.009999999999999995,0,0.5833213290000003
13,69,Equal,0.1,0.1,0.012589254117941666,1,0.5118034210000815
13,70,Equal,0.25,0.25,0.009999999999999995,1,0.6760705730000609
13,71,Equal,0.1,0.1,0.009999999999999995,1,0.5162903679999999
13,72,Control,0.0,0.25,0.015848931924611127,1,0.37551257199993415
13,73,Equal,0.1,0.1,0.00794328234724281,1,0.4427039939999986
13,74,Equal,0.25,0.25,0.00794328234724281,0,0.45401838999998745
13,75,Increase,0.1,0.25,0.01995262314968879,1,0.497016166000094
13,76,Equal,0.25,0.25,0.009999999999999995,1,0.4840977630000225
13,77,Equal,0.25,0.25,0.00794328234724281,0,0.39134860199999366
13,78,Equal,0.25,0.25,0.009999999999999995,0,0.6205076170000439
13,79,Equal_null,0.25,0.25,0.07943282347242815,1,0.4730775040000026
13,80,Decrease,0.25,0.1,0.012589254117941666,0,0.46593617300004553
13,81,Control,0.0,0.25,0.012589254117941666,0,0.5099809880000521
13,82,Equal,0.1,0.1,0.0063095734448019285,0,0.4304353090000177
13,83,Equal,0.1,0.1,0.00794328234724281,0,0.44969032099993456
13,84,Control,0.0,0.1,0.012589254117941666,0,0.5135841339999843
13,85,Decrease,0.25,0.1,0.015848931924611127,0,0.4297934350000787
13,86,Equal,0.25,0.25,0.012589254117941666,0,0.4169996200000696
13,87,Decrease,0.25,0.1,0.01995262314968879,1,0.411279162000028
13,88,Equal,0.25,0.25,0.015848931924611127,1,0.3342804139999771
13,89,Increase,0.1,0.25,0.015848931924611127,1,0.3068676020000112
13,90,Increase,0.1,0.25,0.012589254117941666,0,0.4617828630000531
13,91,Equal,0.25,0.25,0.012589254117941666,0,0.5385344919999397
13,92,Decrease_null,0.25,0.1,0.06309573444801932,1,0.4145183499999803
13,93,Control,0.0,0.1,0.015848931924611127,0,0.5594066559999646
13,94,Control,0.0,0.25,0.015848931924611127,0,0.642641923000042
13,95,Equal,0.25,0.25,0.015848931924611127,1,0.41167525000003025
13,96,Control,0.0,0.1,0.01995262314968879,1,0.32682983400002286
13,97,Equal,0.25,0.25,0.012589254117941666,0,0.4391454870000189
13,98,Equal,0.1,0.1,0.009999999999999995,0,0.3382353609999882
13,99,Decrease,0.25,0.1,0.015848931924611127,1,0.34132146199999625
13,100,Control,0.0,0.1,0.015848931924611127,1,0.3045212030000357
13,101,Increase,0.1,0.25,0.015848931924611127,1,0.4288144040000361
13,102,Equal,0.25,0.25,0.015848931924611127,1,0.47191458700001476
13,103,Increase,0.1,0.25,0.012589254117941666,0,0.4672721690000117
13,104,Increase,0.1,0.25,0.015848931924611127,1,0.47209265799995137
13,105,Equal,0.1,0.1,0.012589254117941666,0,0.7637327370000548
13,106,Equal,0.25,0.25,0.012589254117941666,0,0.55663812399996
13,107,Control_null,0.0,0.1,0.07943282347242815,1,0.4969221369999559
13,108,Decrease,0.25,0.1,0.012589254117941666,0,0.49724593900009495
13,109,Decrease,0.25,0.1,0.015848931924611127,1,0.45234047400003874
13,110,Control_null,0.0,0.25,0.1,1,0.5815410390000579
13,111,Control,0.0,0.25,0.01995262314968879,0,0.5447997489998215
13,112,Increase,0.1,0.25,0.012589254117941666,1,0.4520392869999341
13,113,Increase,0.1,0.25,0.009999999999999995,0,99
13,114,Decrease,0.25,0.1,0.012589254117941666,0,0.7142629850000048
13,115,Control,0.0,0.25,0.025118864315095794,1,0.6532683030000044
13,116,Equal,0.25,0.25,0.015848931924611127,0,0.6803550399999949
13,117,Decrease,0.25,0.1,0.015848931924611127,0,0.7572093649998806
13,118,Equal,0.1,0.1,0.015848931924611127,1,0.48256541599994307
13,119,Increase_null,0.1,0.25,0.07943282347242815,1,0.4913772059999246
13,120,Control,0.0,0.25,0.01995262314968879,0,0.5263678790001904
13,121,Increase,0.1,0.25,0.012589254117941666,0,0.3599824699999772
13,122,Equal,0.1,0.1,0.012589254117941666,0,0.42722831299988684
13,123,Control,0.0,0.1,0.012589254117941666,1,0.38018484700000954
13,124,Decrease,0.25,0.1,0.01995262314968879,1,0.39947817600000235
13,125,Equal,0.25,0.25,0.01995262314968879,1,0.30665808599997035
13,126,Equal,0.1,0.1,0.015848931924611127,1,0.32570016999989093
13,127,Control,0.0,0.1,0.009999999999999995,1,0.43405452799993327
13,128,Increase,0.1,0.25,0.015848931924611127,1,0.34129103700001906
13,129,Equal,0.1,0.1,0.012589254117941666,0,0.41551872000013645
13,130,Equal,0.25,0.25,0.015848931924611127,1,0.3791853400000491
13,131,Increase,0.1,0.25,0.012589254117941666,1,0.4157395259999248
13,132,Equal,0.1,0.1,0.015848931924611127,1,0.3609109470000931
13,133,Control,0.0,0.25,0.025118864315095794,1,0.2521517089999179
13,134,Equal,0.1,0.1,0.012589254117941666,0,0.8680367650001699
13,135,Equal_null,0.25,0.25,0.06309573444801932,1,0.5750354110000444
13,136,Equal,0.25,0.25,0.012589254117941666,1,0.40972697699999117
13,137,Equal,0.1,0.1,0.015848931924611127,1,0.3892834569999195
13,138,Equal_null,0.25,0.25,0.05011872336272722,1,0.5122047259999363
13,139,Decrease,0.25,0.1,0.015848931924611127,1,0.4281852950000484
13,140,Control_null,0.0,0.25,0.07943282347242815,1,0.9674191399999472
13,141,Equal,0.25,0.25,0.009999999999999995,0,0.7466901180000605
13,142,Control,0.0,0.25,0.01995262314968879,1,0.35090226399984203
13,143,Equal,0.25,0.25,0.012589254117941666,1,0.4258305430000746
13,144,Increase,0.1,0.25,0.009999999999999995,1,0.4059187299999394
13,145,Decrease,0.25,0.1,0.012589254117941666,1,0.6380042779999258
13,146,Control,0.0,0.1,0.00794328234724281,1,0.44918974600000183
13,147,Control,0.0,0.25,0.015848931924611127,1,0.48954715399986526
13,148,Control_null,0.0,0.1,0.06309573444801932,1,0.47727190299997346
13,149,Increase,0.1,0.25,0.00794328234724281,0,0.6392419189999146
13,150,Control,0.0,0.1,0.0063095734448019285,0,0.5700105209998583
13,151,Increase,0.1,0.25,0.009999999999999995,0,0.5734426389999498
13,152,Control,0.0,0.25,0.012589254117941666,0,0.6084172920000128
13,153,Increase,0.1,0.25,0.012589254117941666,0,0.5641275489999771
13,154,Equal,0.1,0.1,0.012589254117941666,0,0.6105625560001045
13,155,Decrease,0.25,0.1,0.009999999999999995,0,0.5068713000000571
13,156,Control,0.0,0.25,0.015848931924611127,1,0.5194075049998901
13,157,Equal,0.25,0.25,0.009999999999999995,0,0.48263691499982997
13,158,Control,0.0,0.1,0.00794328234724281,0,0.5066571039999417
13,159,Equal,0.25,0.25,0.012589254117941666,0,0.5579566809999505
13,160,Control,0.0,0.1,0.009999999999999995,0,0.5192263000001276
13,161,Equal,0.1,0.1,0.015848931924611127,1,0.25808376200006933
13,162,Increase,0.1,0.25,0.015848931924611127,1,0.379983632999938
13,163,Control,0.0,0.25,0.012589254117941666,1,0.3593451910001022
13,164,Decrease,0.25,0.1,0.012589254117941666,0,0.5949663040000814
13,165,Increase,0.1,0.25,0.012589254117941666,1,0.5499355970000579
13,166,Equal_null,0.25,0.25,0.03981071705534971,1,0.6182993699999315
13,167,Equal,0.1,0.1,0.012589254117941666,0,0.607426180000175
13,168,Control,0.0,0.1,0.012589254117941666,1,0.6015530889999354
13,169,Control,0.0,0.1,0.009999999999999995,1,0.6446921240001302
13,170,Increase,0.1,0.25,0.009999999999999995,0,0.600003413999957
13,171,Equal,0.25,0.25,0.015848931924611127,1,0.36006299099994976
13,172,Decrease,0.25,0.1,0.015848931924611127,1,0.5881969439999466
13,173,Equal,0.1,0.1,0.015848931924611127,1,0.38871012300000984
13,174,Control,0.0,0.1,0.00794328234724281,0,0.7277327909998803
13,175,Equal,0.25,0.25,0.012589254117941666,0,0.7057326320000357
13,176,Control,0.0,0.1,0.009999999999999995,0,0.6459420450000835
13,177,Equal,0.25,0.25,0.015848931924611127,1,0.5208325509997849
13,178,Control,0.0,0.1,0.012589254117941666,1,0.6194264210000711
13,179,Equal,0.25,0.25,0.012589254117941666,0,0.5046770959997957
13,180,Equal,0.1,0.1,0.012589254117941666,1,0.5731374640001832
13,181,Increase_null,0.1,0.25,0.06309573444801932,1,0.5911862749999273
13,182,Control,0.0,0.1,0.009999999999999995,1,0.4661778760000743
13,183,Equal,0.1,0.1,0.009999999999999995,1,0.4382870730000832
13,184,Control,0.0,0.1,0.00794328234724281,0,0.6947404170000482
13,185,Increase_null,0.1,0.25,0.05011872336272722,1,0.5696764560000247
13,186,Decrease,0.25,0.1,0.012589254117941666,1,0.4258104519999506
13,187,Control,0.0,0.1,0.009999999999999995,0,0.5900900999999976
13,188,Control,0.0,0.1,0.012589254117941666,0,0.5122426460000042
13,189,Equal_null,0.1,0.1,0.06309573444801932,1,0.5155880050001542
13,190,Control,0.0,0.1,0.015848931924611127,1,0.65484045900007
13,191,Control,0.0,0.1,0.012589254117941666,1,0.7128440890001002
13,192,Decrease,0.25,0.1,0.009999999999999995,1,0.6950491480001801
13,193,Decrease,0.25,0.1,0.00794328234724281,0,0.3786556370000653
13,194,Control,0.0,0.1,0.009999999999999995,0,0.14044341600015287
13,195,Control,0.0,0.25,0.009999999999999995,0,0.5275662799999736
13,196,Control,0.0,0.1,0.012589254117941666,0,0.4636823439998352
13,197,Equal,0.25,0.25,0.015848931924611127,1,0.6191196439999658
13,198,Equal,0.25,0.25,0.012589254117941666,1,0.807215258000042
13,199,Equal,0.25,0.25,0.009999999999999995,0,0.6155516879998686
13,200,Control,0.0,0.1,0.015848931924611127,0,0.8823994220001623
13,201,Control,0.0,0.1,0.01995262314968879,1,0.5258817090000321
13,202,Decrease,0.25,0.1,0.009999999999999995,1,0.6568858910000017
13,203,Equal_null,0.1,0.1,0.05011872336272722,1,0.8840772710000238
13,204,Equal,0.25,0.25,0.012589254117941666,1,0.6393536890000178
13,205,Control,0.0,0.25,0.012589254117941666,0,0.6925591320000422
13,206,Equal,0.25,0.25,0.009999999999999995,0,0.633152513999903
13,207,Increase,0.1,0.25,0.012589254117941666,0,0.6817766739998206
13,208,Control_null,0.0,0.1,0.05011872336272722,1,0.6927596079999603
13,209,Decrease,0.25,0.1,0.00794328234724281,0,0.6140273620001153
13,210,Equal,0.25,0.25,0.012589254117941666,0,0.38519320499995047
13,211,Control,0.0,0.1,0.015848931924611127,0,0.3325195039999471
13,212,Equal,0.1,0.1,0.00794328234724281,0,0.6129353640001227
13,213,Control,0.0,0.25,0.015848931924611127,0,0.5759133809999639
13,214,Control,0.0,0.1,0.01995262314968879,0,0.43516698799999176
13,215,Equal,0.25,0.25,0.015848931924611127,0,0.41545835900001293
13,216,Increase,0.1,0.25,0.015848931924611127,0,0.7065788120000889
13,217,Increase,0.1,0.25,0.01995262314968879,1,0.8058465619999424
13,218,Control,0.0,0.1,0.025118864315095794,1,0.4180386230000295
13,219,Equal,0.25,0.25,0.01995262314968879,1,0.5593785020000723
13,220,Equal,0.25,0.25,0.015848931924611127,1,0.5441945050001777
13,221,Control,0.0,0.1,0.01995262314968879,1,0.4033939220000775
13,222,Control,0.0,0.25,0.01995262314968879,0,0.7329051190001792
13,223,Control,0.0,0.25,0.025118864315095794,1,0.36794600700000046
13,224,Equal,0.1,0.1,0.009999999999999995,1,0.5470621179999853
13,225,Equal,0.1,0.1,0.00794328234724281,0,0.6429821130000164
13,226,Control,0.0,0.25,0.01995262314968879,1,0.44738696199988226
13,227,Equal,0.25,0.25,0.012589254117941666,0,0.6506046399999832
13,228,Equal,0.1,0.1,0.009999999999999995,0,0.613830370000187
13,229,Control,0.0,0.25,0.015848931924611127,0,0.9770161879998795
13,230,Control,0.0,0.25,0.01995262314968879,0,0.41200650599989785
13,231,Equal_null,0.1,0.1,0.03981071705534971,1,0.576736727000025
13,232,Control,0.0,0.25,0.025118864315095794,1,0.30149447799999507
13,233,Control,0.0,0.25,0.01995262314968879,0,0.5906259529999716
13,234,Increase,0.1,0.25,0.015848931924611127,1,0.4255009329999666
13,235,Increase,0.1,0.25,0.012589254117941666,1,0.4831308819998412
13,236,Decrease,0.25,0.1,0.009999999999999995,0,0.45305178299986437
13,237,Increase,0.1,0.25,0.009999999999999995,0,0.5685471430001598
13,238,Increase_null,0.1,0.25,0.03981071705534971,1,0.5295204960000319
13,239,Control,0.0,0.1,0.015848931924611127,0,0.7716424319999078
13,240,Equal,0.25,0.25,0.015848931924611127,1,0.4581200089999129
13,241,Equal,0.25,0.25,0.012589254117941666,1,0.36521565199996076
13,242,Equal,0.1,0.1,0.012589254117941666,1,0.45648715299989817
13,243,Equal,0.1,0.1,0.009999999999999995,1,0.564666723000073
13,244,Control,0.0,0.25,0.025118864315095794,1,0.5200117879999198
13,245,Equal,0.25,0.25,0.009999999999999995,0,0.6270257860001038
13,246,Increase,0.1,0.25,0.012589254117941666,0,0.6319672469999205
13,247,Decrease,0.25,0.1,0.012589254117941666,1,0.37950458600016646
13,248,Equal,0.1,0.1,0.00794328234724281,0,0.5315511779999724
13,249,Increase,0.1,0.25,0.015848931924611127,1,0.34239453800000774
13,250,Increase,0.1,0.25,0.012589254117941666,1,0.520113019000064
13,251,Increase_null,0.1,0.25,0.031622776601683784,0,0.6750209249998989
13,252,Equal,0.1,0.1,0.009999999999999995,0,0.508312394000086
13,253,Control,0.0,0.1,0.01995262314968879,1,0.4553918490000797
13,254,Decrease,0.25,0.1,0.009999999999999995,0,0.7226241560001654
13,255,Decrease,0.25,0.1,0.012589254117941666,1,0.485826416000009
13,256,Equal,0.25,0.25,0.012589254117941666,1,0.5299549930000467
13,257,Equal,0.1,0.1,0.012589254117941666,0,0.573298498999975
13,258,Control,0.0,0.25,0.01995262314968879,1,0.8002642129999913
13,259,Decrease,0.25,0.1,0.009999999999999995,1,0.5875829589999739
13,260,Decrease,0.25,0.1,0.00794328234724281,1,0.4559293540000908
13,261,Decrease,0.25,0.1,0.0063095734448019285,0,0.5040459070000907
13,262,Decrease,0.25,0.1,0.00794328234724281,0,0.5473360379999122
13,263,Equal,0.25,0.25,0.009999999999999995,1,0.6285602829998425
13,264,Control,0.0,0.1,0.015848931924611127,1,0.5436875509999481
13,265,Control,0.0,0.25,0.015848931924611127,1,0.5047041729999364
13,266,Control,0.0,0.25,0.012589254117941666,0,0.5555754330000582
13,267,Control,0.0,0.25,0.015848931924611127,1,0.44709726299993235
13,268,Increase,0.1,0.25,0.009999999999999995,1,0.49146242300002996
13,269,Increase,0.1,0.25,0.00794328234724281,0,0.694604838000032
13,270,Control,0.0,0.25,0.012589254117941666,1,0.561634075000029
13,271,Decrease_null,0.25,0.1,0.05011872336272722,1,0.5085595629998352
13,272,Control,0.0,0.25,0.009999999999999995,0,0.5270990179999444
13,273,Increase,0.1,0.25,0.009999999999999995,0,0.5472332829999687
13,274,Equal_null,0.1,0.1,0.031622776601683784,1,0.531928445999938
13,275,Equal,0.1,0.1,0.015848931924611127,1,0.5034144810001635
13,276,Increase,0.1,0.25,0.012589254117941666,1,0.5196984320000411
13,277,Increase,0.1,0.25,0.009999999999999995,0,0.45060792799995397
13,278,Decrease,0.25,0.1,0.009999999999999995,0,0.48520887699987725
13,279,Control,0.0,0.1,0.012589254117941666,0,0.5444339709999895
13,280,Equal,0.25,0.25,0.00794328234724281,0,0.4035652590000609
13,281,Equal_null,0.1,0.1,0.02511886431509579,1,0.270547919999899
13,282,Control,0.0,0.25,0.012589254117941666,0,0.47399856399988494
13,283,Increase,0.1,0.25,0.012589254117941666,0,0.390026232000082
13,284,Decrease,0.25,0.1,0.012589254117941666,0,0.4489676010000494
13,285,Increase,0.1,0.25,0.015848931924611127,0,0.3475464410000768
13,286,Equal,0.1,0.1,0.012589254117941666,0,0.20071587800021007
13,287,Equal,0.25,0.25,0.009999999999999995,0,0.17668540399995436
13,288,Equal,0.25,0.25,0.012589254117941666,0,0.3956580890001078
13,289,Equal,0.25,0.25,0.015848931924611127,1,0.5173959280000417
13,290,Equal_null,0.25,0.25,0.031622776601683784,1,0.46449374500002705
13,291,Control_null,0.0,0.1,0.03981071705534971,1,0.47363265499984664
13,292,Control,0.0,0.25,0.015848931924611127,0,0.48481324500016854
13,293,Increase,0.1,0.25,0.01995262314968879,1,0.5280174679999163
13,294,Decrease,0.25,0.1,0.015848931924611127,1,0.5952713140000014
13,295,Increase,0.1,0.25,0.015848931924611127,0,0.5662277360002008
13,296,Increase,0.1,0.25,0.01995262314968879,1,0.4904096059999574
13,297,Equal,0.1,0.1,0.015848931924611127,1,0.46265414199979205
13,298,Control,0.0,0.25,0.01995262314968879,1,0.40114598400009527
13,299,Increase_null,0.1,0.25,0.03981071705534971,1,0.5160327800001596
13,300,Control,0.0,0.25,0.015848931924611127,1,0.5559345890001168
13,301,Increase_null,0.1,0.25,0.031622776601683784,1,0.5914799940001103
13,302,Control,0.0,0.25,0.012589254117941666,0,0.6877253539998947
13,303,Control,0.0,0.25,0.015848931924611127,1,0.4831602090000615
13,304,Decrease,0.25,0.1,0.012589254117941666,0,0.5419945860001008
13,305,Control,0.0,0.25,0.012589254117941666,0,0.8331696640000246
13,306,Increase,0.1,0.25,0.015848931924611127,1,0.7323433760000171
13,307,Increase,0.1,0.25,0.012589254117941666,0,0.7836860669999623
13,308,Decrease,0.25,0.1,0.015848931924611127,0,0.8211562359999789
13,309,Control,0.0,0.25,0.015848931924611127,1,0.576129771000069
13,310,Control,0.0,0.1,0.015848931924611127,0,0.5713246559998879
13,311,Control,0.0,0.25,0.012589254117941666,1,0.4133800380000139
13,312,Equal,0.1,0.1,0.012589254117941666,0,0.48842333099992175
13,313,Increase,0.1,0.25,0.015848931924611127,1,0.545896422999931
13,314,Control,0.0,0.1,0.01995262314968879,0,0.6529826529999809
13,315,Increase,0.1,0.25,0.012589254117941666,0,0.6051700230000279
13,316,Equal_null,0.25,0.25,0.02511886431509579,1,0.5119244269999399
13,317,Equal,0.1,0.1,0.015848931924611127,1,0.42748479400006545
13,318,Control,0.0,0.25,0.009999999999999995,0,0.5986316000000897
13,319,Decrease,0.25,0.1,0.01995262314968879,1,0.33796492400006173
13,320,Decrease,0.25,0.1,0.015848931924611127,1,0.4529732430000877
13,321,Increase,0.1,0.25,0.015848931924611127,1,0.43428947600000356
13,322,Control,0.0,0.25,0.012589254117941666,1,0.4147562329999346
13,323,Decrease,0.25,0.1,0.012589254117941666,0,0.5305960560001495
13,324,Equal_null,0.25,0.25,0.01995262314968879,1,0.49966136199986977
13,325,Decrease,0.25,0.1,0.015848931924611127,1,0.5426231950000329
13,326,Control,0.0,0.1,0.025118864315095794,1,0.544253450000042
13,327,Decrease,0.25,0.1,0.012589254117941666,0,0.5714215650000369
13,328,Control,0.0,0.1,0.01995262314968879,1,0.491482496999879
13,329,Increase,0.1,0.25,0.012589254117941666,1,0.5105753740001546
13,330,Decrease,0.25,0.1,0.015848931924611127,1,0.561900309000066
13,331,Control,0.0,0.1,0.015848931924611127,1,0.5492726659999789
13,332,Equal,0.25,0.25,0.012589254117941666,0,0.672256526999945
13,333,Control,0.0,0.25,0.009999999999999995,0,0.6993474119999519
13,334,Decrease,0.25,0.1,0.012589254117941666,0,0.7037846309999622
13,335,Control,0.0,0.25,0.012589254117941666,0,0.5653533739998693
13,336,Equal,0.1,0.1,0.012589254117941666,0,0.4889455369998359
13,337,Increase,0.1,0.25,0.009999999999999995,0,0.5297201740002038
13,338,Equal_null,0.25,0.25,0.015848931924611127,1,0.4293905529998483
13,339,Equal,0.25,0.25,0.015848931924611127,0,0.48547293399997216
13,340,Control,0.0,0.1,0.012589254117941666,0,0.5364592790001552
13,341,Control,0.0,0.1,0.015848931924611127,1,0.4648068950000379
13,342,Increase,0.1,0.25,0.012589254117941666,0,0.5481360439998753
13,343,Control,0.0,0.25,0.015848931924611127,1,0.5754995450001843
13,344,Increase,0.1,0.25,0.015848931924611127,1,0.4745519549999244
13,345,Increase,0.1,0.25,0.012589254117941666,1,0.4695306139999502
13,346,Control_null,0.0,0.1,0.031622776601683784,1,0.608892694999895
13,347,Control,0.0,0.25,0.012589254117941666,0,0.4610219620001317
13,348,Decrease,0.25,0.1,0.015848931924611127,1,0.4184532600002058
13,349,Increase,0.1,0.25,0.009999999999999995,0,0.5424560090000341
13,350,Equal,0.1,0.1,0.015848931924611127,1,0.5345676329998241
13,351,Control,0.0,0.1,0.012589254117941666,0,0.5454417259998081
13,352,Decrease,0.25,0.1,0.012589254117941666,0,1.203024945000152
13,353,Control,0.0,0.25,0.015848931924611127,1,0.6623543880000398
13,354,Increase,0.1,0.25,0.012589254117941666,1,0.4942972590001773
13,355,Equal,0.25,0.25,0.01995262314968879,1,0.48943264700005784
13,356,Control,0.0,0.1,0.015848931924611127,1,0.3166930880001928
13,357,Equal,0.25,0.25,0.015848931924611127,1,0.5517776990000129
13,358,Equal,0.1,0.1,0.012589254117941666,1,0.5642258519999359
13,359,Control,0.0,0.1,0.012589254117941666,0,0.5194075510000857
13,360,Control,0.0,0.1,0.015848931924611127,1,0.3885512699998799
13,361,Equal,0.25,0.25,0.012589254117941666,0,0.47626193599990074
13,362,Control,0.0,0.1,0.012589254117941666,0,0.4006763449999653
13,363,Control,0.0,0.1,0.015848931924611127,1,0.424509111000134
13,364,Control,0.0,0.25,0.012589254117941666,1,0.4919961189998503
13,365,Control,0.0,0.25,0.009999999999999995,1,0.4853157300001385
13,366,Control,0.0,0.25,0.00794328234724281,1,0.3844425320000937
13,367,Control,0.0,0.25,0.0063095734448019285,0,0.40343039799995495
13,368,Equal,0.1,0.1,0.009999999999999995,1,0.41458779200002027
13,369,Control_null,0.0,0.1,0.02511886431509579,1,0.6095419109999511
13,370,Control,0.0,0.25,0.00794328234724281,1,0.49313463200019214
13,371,Increase,0.1,0.25,0.009999999999999995,1,0.43205389000013383
13,372,Control,0.0,0.1,0.012589254117941666,0,0.509278785999868
13,373,Control,0.0,0.25,0.0063095734448019285,0,0.4032588499999292
13,374,Increase,0.1,0.25,0.00794328234724281,1,0.37085340499993436
13,375,Equal,0.1,0.1,0.00794328234724281,0,0.47109818199987785
13,376,Control,0.0,0.25,0.00794328234724281,0,0.6791654830001335
13,377,Equal,0.1,0.1,0.009999999999999995,1,0.5864012140000341
13,378,Control,0.0,0.25,0.009999999999999995,0,0.683636641000021
13,379,Increase_null,0.1,0.25,0.02511886431509579,1,0.4223772539999118
13,380,Equal,0.1,0.1,0.00794328234724281,0,0.4816044970000348
13,381,Equal,0.1,0.1,0.009999999999999995,0,0.40607297799988373
13,382,Control,0.0,0.1,0.015848931924611127,1,0.36943964500005677
13,383,Control,0.0,0.25,0.012589254117941666,1,0.34849984199991013
13,384,Equal,0.25,0.25,0.015848931924611127,1,0.3193578099999286
13,385,Control_null,0.0,0.1,0.01995262314968879,1,0.4762581259999479
13,386,Control,0.0,0.25,0.009999999999999995,1,0.4017258330000004
13,387,Increase,0.1,0.25,0.0063095734448019285,0,0.46522635900009845
13,388,Equal,0.25,0.25,0.012589254117941666,0,0.4844532509998771
13,389,Increase_null,0.1,0.25,0.01995262314968879,0,0.5322659879998355
13,390,Equal,0.25,0.25,0.015848931924611127,1,0.4957669759999135
13,391,Equal,0.25,0.25,0.012589254117941666,1,0.48065057100006925
13,392,Equal,0.25,0.25,0.009999999999999995,0,0.5242424389998632
13,393,Control,0.0,0.1,0.012589254117941666,0,0.45524578999993537
13,394,Equal,0.1,0.1,0.012589254117941666,1,0.5066253360000701
13,395,Increase,0.1,0.25,0.00794328234724281,1,0.4467166070000985
13,396,Control,0.0,0.25,0.00794328234724281,1,0.6180532630000926
13,397,Increase,0.1,0.25,0.0063095734448019285,1,0.7239446410001165
13,398,Control,0.0,0.25,0.0063095734448019285,0,0.7612491740001133
13,399,Equal,0.1,0.1,0.009999999999999995,0,0.7669353859998864
13,400,Control,0.0,0.25,0.00794328234724281,0,0.8623347620000459
13,401,Decrease,0.25,0.1,0.015848931924611127,1,0.7376183229998787
13,402,Control,0.0,0.1,0.015848931924611127,1,0.5951695649998783
13,403,Control,0.0,0.25,0.009999999999999995,0,0.6301661219999914
13,404,Equal,0.1,0.1,0.012589254117941666,0,0.5114113449999422
13,405,Equal,0.1,0.1,0.015848931924611127,1,0.586349779000102
13,406,Decrease,0.25,0.1,0.012589254117941666,0,0.6856253079999988
13,407,Control,0.0,0.1,0.012589254117941666,0,0.5861941210000623
13,408,Increase,0.1,0.25,0.005011872336272719,0,0.741239410000162
13,409,Control,0.0,0.25,0.012589254117941666,0,0.8241123840000455
13,410,Decrease,0.25,0.1,0.015848931924611127,1,0.8837747810000565
13,411,Increase,0.1,0.25,0.0063095734448019285,0,0.7116567690000011
13,412,Decrease,0.25,0.1,0.012589254117941666,1,0.9094470800000636
13,413,Equal,0.25,0.25,0.012589254117941666,0,0.39680258499993215
13,414,Control,0.0,0.25,0.015848931924611127,0,0.544032666000021
13,415,Decrease,0.25,0.1,0.009999999999999995,0,0.5615092569998978
13,416,Control,0.0,0.1,0.015848931924611127,1,0.44455505399992035
13,417,Equal,0.25,0.25,0.015848931924611127,1,0.39069483000002947
13,418,Equal,0.1,0.1,0.012589254117941666,1,0.4342303040000388
13,419,Equal,0.25,0.25,0.012589254117941666,0,0.3972981609999806
13,420,Equal,0.25,0.25,0.015848931924611127,0,0.5913839479999297
13,421,Decrease,0.25,0.1,0.012589254117941666,0,0.5784535029999915
13,422,Increase,0.1,0.25,0.00794328234724281,0,0.5176654959998359
13,423,Equal_null,0.25,0.25,0.012589254117941666,1,0.4981478939998851
13,424,Increase,0.1,0.25,0.009999999999999995,0,0.35022233800009417
13,425,Control,0.0,0.25,0.01995262314968879,1,0.5221639870001127
13,426,Decrease,0.25,0.1,0.015848931924611127,1,0.9305853890000435
13,427,Decrease,0.25,0.1,0.012589254117941666,0,0.445502174000012
13,428,Decrease,0.25,0.1,0.015848931924611127,0,0.5496665959999518
13,429,Control,0.0,0.25,0.015848931924611127,0,0.17010244300013255
13,430,Increase,0.1,0.25,0.012589254117941666,0,0.48330759000009493
13,431,Control,0.0,0.1,0.012589254117941666,1,0.4384874319998744
13,432,Equal,0.1,0.1,0.009999999999999995,0,0.6745782570001211
13,433,Control,0.0,0.1,0.009999999999999995,0,0.5657215109999925
13,434,Equal,0.1,0.1,0.012589254117941666,1,0.5287023260000296
13,435,Increase,0.1,0.25,0.015848931924611127,1,0.5013588740000614
13,436,Decrease,0.25,0.1,0.01995262314968879,1,0.41433017000008476
13,437,Control,0.0,0.1,0.012589254117941666,0,0.529434874999879
13,438,Control,0.0,0.25,0.01995262314968879,0,0.48478023500001655
13,439,Equal,0.25,0.25,0.01995262314968879,1,0.5579977509999026
13,440,Decrease,0.25,0.1,0.015848931924611127,1,0.3933095919999232
13,441,Control,0.0,0.25,0.025118864315095794,1,0.46424922699998206
13,442,Equal,0.1,0.1,0.009999999999999995,0,0.6444091390001176
13,443,Increase_null,0.1,0.25,0.025118864315095794,1,0.5509391890000188
13,444,Equal,0.1,0.1,0.012589254117941666,1,0.7700357520000125
13,445,Decrease_null,0.25,0.1,0.03981071705534971,1,0.7172294790000251
13,446,Control,0.0,0.25,0.01995262314968879,1,0.5119936900000539
13,447,Equal,0.1,0.1,0.009999999999999995,1,0.3255038519998834
13,448,Control,0.0,0.25,0.015848931924611127,1,0.36970870899995134
13,449,Equal,0.25,0.25,0.015848931924611127,1,0.37211172999991504
13,450,Decrease,0.25,0.1,0.012589254117941666,0,0.5030979970001681
13,451,Equal,0.1,0.1,0.00794328234724281,1,0.41087815199989564
13,452,Control,0.0,0.25,0.012589254117941666,1,0.6444153380000444
13,453,Control,0.0,0.25,0.009999999999999995,0,0.6234081160000642
13,454,Control,0.0,0.25,0.012589254117941666,1,0.583444591999978
13,455,Increase,0.1,0.25,0.012589254117941666,0,0.7785760750000463
13,456,Decrease,0.25,0.1,0.015848931924611127,0,0.5009892309999486
13,457,Equal,0.1,0.1,0.0063095734448019285,0,0.5452452389999962
13,458,Increase,0.1,0.25,0.015848931924611127,1,0.6443509719999838
13,459,Control,0.0,0.1,0.015848931924611127,1,0.3593591579999611
13,460,Control,0.0,0.25,0.009999999999999995,1,0.3649230290000105
13,461,Control,0.0,0.1,0.012589254117941666,0,0.5610210319998714
13,462,Equal,0.25,0.25,0.012589254117941666,0,0.6520418200000222
13,463,Equal_null,0.1,0.1,0.01995262314968879,1,0.23935449600003267
13,464,Increase,0.1,0.25,0.012589254117941666,0,0.498426956000003
13,465,Equal_null,0.1,0.1,0.015848931924611127,1,0.2030312000001686
13,466,Control,0.0,0.25,0.00794328234724281,0,0.2939411790000577
13,467,Increase,0.1,0.25,0.015848931924611127,1,0.41481196699987777
13,468,Control,0.0,0.25,0.009999999999999995,0,0.5382936309999877
13,469,Increase,0.1,0.25,0.012589254117941666,0,0.7485469680000278
13,470,Control,0.0,0.1,0.015848931924611127,1,0.4326708060000328
13,471,Control,0.0,0.1,0.012589254117941666,1,0.45190373300010833
13,472,Equal,0.25,0.25,0.015848931924611127,1,0.4391324260000147
13,473,Equal,0.1,0.1,0.00794328234724281,1,0.3232882900001641
13,474,Equal_null,0.25,0.25,0.009999999999999995,1,0.7117836980000902
13,475,Control,0.0,0.1,0.009999999999999995,0,0.5456680800000413
13,476,Equal,0.25,0.25,0.012589254117941666,0,0.6459636030001548
13,477,Control,0.0,0.1,0.012589254117941666,0,0.5209377989999666
13,478,Equal,0.1,0.1,0.0063095734448019285,0,0.5930543469999066
13,479,Increase,0.1,0.25,0.015848931924611127,1,0.5243124169999192
13,480,Equal,0.25,0.25,0.015848931924611127,1,0.6914434469999833
13,481,Equal,0.25,0.25,0.012589254117941666,0,0.4864297379999698
13,482,Increase,0.1,0.25,0.012589254117941666,0,0.7788661669997055
13,483,Decrease,0.25,0.1,0.01995262314968879,1,0.5022785700002714
13,484,Decrease,0.25,0.1,0.015848931924611127,1,0.505194721999942
13,485,Control,0.0,0.1,0.015848931924611127,1,0.44412852499999644
13,486,Equal,0.1,0.1,0.00794328234724281,1,0.4087627399999292
13,487,Control,0.0,0.1,0.012589254117941666,1,0.4060910540001714
13,488,Equal,0.1,0.1,0.0063095734448019285,0,0.37484354500020345
13,489,Equal,0.25,0.25,0.015848931924611127,1,0.3937481020002451
13,490,Equal,0.1,0.1,0.00794328234724281,1,0.5700828959998034
13,491,Equal,0.1,0.1,0.0063095734448019285,0,0.7573899580002035
13,492,Decrease,0.25,0.1,0.012589254117941666,1,0.49662350400012656
13,493,Decrease,0.25,0.1,0.009999999999999995,1,0.36965111900008196
13,494,Equal,0.25,0.25,0.012589254117941666,1,0.4849021380000522
13,495,Increase,0.1,0.25,0.015848931924611127,1,0.3760910920000242
13,496,Equal,0.25,0.25,0.009999999999999995,1,0.44324754200033567
13,497,Decrease,0.25,0.1,0.00794328234724281,1,0.46239858699982506
13,498,Decrease,0.25,0.1,0.0063095734448019285,1,0.4899588670000412
13,499,Increase,0.1,0.25,0.012589254117941666,0,0.4635981329997776
13,500,Control,0.0,0.1,0.009999999999999995,1,0.5072325629998886
13,501,Increase,0.1,0.25,0.015848931924611127,1,0.3081237749997854
13,502,Control,0.0,0.25,0.012589254117941666,0,0.4166162940000504
13,503,Decrease,0.25,0.1,0.005011872336272719,0,0.5288588929997786
13,504,Increase,0.1,0.25,0.012589254117941666,0,0.4200607940001646
13,505,Equal_null,0.25,0.25,0.00794328234724281,1,0.5031825790001676
13,506,Decrease,0.25,0.1,0.0063095734448019285,0,0.33622681099996043
13,507,Control,0.0,0.1,0.00794328234724281,0,0.3872991970001749
13,508,Control,0.0,0.25,0.015848931924611127,0,0.5508382040002289
13,509,Increase,0.1,0.25,0.015848931924611127,1,0.41755475199988723
13,510,Equal,0.1,0.1,0.00794328234724281,0,0.47000210900023376
13,511,Equal_null,0.25,0.25,0.0063095734448019285,1,0.401404009000089
13,512,Control,0.0,0.25,0.01995262314968879,0,0.4700208300000668
13,513,Equal,0.25,0.25,0.00794328234724281,1,0.8657259439996778
13,514,Equal_null,0.25,0.25,0.005011872336272719,1,0.4268347659999563
13,515,Control,0.0,0.25,0.025118864315095794,1,0.533952175000195
13,516,Increase_null,0.1,0.25,0.01995262314968879,1,0.5261909340001694
13,517,Control,0.0,0.1,0.009999999999999995,0,0.7693025940002371
13,518,Control,0.0,0.1,0.012589254117941666,0,0.5482576890003656
13,519,Control,0.0,0.1,0.015848931924611127,1,0.49469005800028754
13,520,Equal_null,0.1,0.1,0.012589254117941666,1,0.7140801949999513
13,521,Equal,0.1,0.1,0.009999999999999995,0,0.5490851560002739
13,522,Equal,0.25,0.25,0.0063095734448019285,0,0.45628023299968845
13,523,Equal,0.1,0.1,0.012589254117941666,1,0.7151546629997938
13,524,Control_null,0.0,0.1,0.015848931924611127,1,0.5344296700000086
13,525,Increase,0.1,0.25,0.012589254117941666,1,0.537886700999934
13,526,Control,0.0,0.1,0.012589254117941666,0,0.6468107179998697
13,527,Decrease,0.25,0.1,0.00794328234724281,1,0.40811918700001115
13,528,Equal,0.1,0.1,0.009999999999999995,0,0.8674245500001234
13,529,Equal,0.1,0.1,0.012589254117941666,1,0.4834152759999597
13,530,Increase,0.1,0.25,0.009999999999999995,1,0.3997163819999514
13,531,Control,0.0,0.1,0.015848931924611127,1,0.41896665900003427
13,532,Equal,0.1,0.1,0.009999999999999995,0,0.5802730230002453
13,533,Increase,0.1,0.25,0.00794328234724281,1,0.4392410400000699
13,534,Equal,0.1,0.1,0.012589254117941666,0,0.5224614729995665
13,535,Increase,0.1,0.25,0.0063095734448019285,0,0.41448343100000784
13,536,Equal,0.25,0.25,0.00794328234724281,1,0.4179000740000447
13,537,Equal,0.25,0.25,0.0063095734448019285,0,0.38104710500010697
13,538,Control,0.0,0.1,0.012589254117941666,1,0.5042477740003051
13,539,Control_null,0.0,0.25,0.06309573444801932,1,0.8206913789999817
13,540,Control,0.0,0.25,0.01995262314968879,1,0.38754301600010876
13,541,Control,0.0,0.1,0.009999999999999995,1,0.46264491600004476
13,542,Increase,0.1,0.25,0.00794328234724281,1,0.6631467869997323
13,543,Decrease,0.25,0.1,0.0063095734448019285,0,0.5540448619999552
13,544,Equal,0.25,0.25,0.00794328234724281,0,0.40634391799994773
13,545,Control,0.0,0.1,0.00794328234724281,1,0.36763799999971525
13,546,Decrease_null,0.25,0.1,0.031622776601683784,1,0.946664029999738
13,547,Equal,0.25,0.25,0.009999999999999995,1,0.4858122000000549
13,548,Equal,0.1,0.1,0.015848931924611127,1,0.3942035189998023
13,549,Equal,0.25,0.25,0.00794328234724281,1,0.5811788400001205
13,550,Increase,0.1,0.25,0.0063095734448019285,1,0.5605354839999563
13,551,Control,0.0,0.25,0.015848931924611127,1,0.37086165500022616
13,552,Equal_null,0.1,0.1,0.009999999999999995,1,0.7669020080002156
13,553,Equal,0.1,0.1,0.012589254117941666,1,0.4950050709999232
13,554,Equal,0.25,0.25,0.0063095734448019285,0,0.3861885800001801
13,555,Control,0.0,0.25,0.012589254117941666,0,0.41060911400018085
13,556,Control,0.0,0.25,0.015848931924611127,1,0.5426743379998697
13,557,Equal,0.25,0.25,0.00794328234724281,1,0.43398379400014164
13,558,Decrease,0.25,0.1,0.00794328234724281,0,0.41988703600009103
13,559,Control,0.0,0.1,0.0063095734448019285,0,0.6470861970001351
13,560,Increase_null,0.1,0.25,0.015848931924611127,1,0.45834688000013557
13,561,Decrease,0.25,0.1,0.009999999999999995,0,0.4773301800000809
13,562,Increase,0.1,0.25,0.005011872336272719,0,0.3230109450000782
13,563,Control,0.0,0.1,0.00794328234724281,0,0.5742338850000124
13,564,Equal,0.25,0.25,0.0063095734448019285,0,1.1209795280001345
13,565,Increase,0.1,0.25,0.0063095734448019285,0,0.4838573830002133
13,566,Control_null,0.0,0.1,0.012589254117941666,1,0.549304728000152
13,567,Control,0.0,0.1,0.009999999999999995,0,0.6323597730001893
13,568,Decrease,0.25,0.1,0.012589254117941666,0,0.536702817999867
13,569,Increase_null,0.1,0.25,0.012589254117941666,1,0.4771765199998299
13,570,Equal,0.25,0.25,0.00794328234724281,1,0.5763707650003198
13,571,Equal,0.25,0.25,0.0063095734448019285,0,0.5543276910002533
13,572,Equal,0.1,0.1,0.009999999999999995,1,0.5655444300000454
13,573,Control,0.0,0.1,0.012589254117941666,0,0.8328317250002328
13,574,Equal,0.25,0.25,0.00794328234724281,0,0.5718529199998557
13,575,Decrease,0.25,0.1,0.015848931924611127,1,0.4811228960002154
13,576,Control,0.0,0.1,0.015848931924611127,1,0.4293702139998459
13,577,Control,0.0,0.1,0.012589254117941666,1,0.3754292950002309
13,578,Equal,0.1,0.1,0.00794328234724281,0,0.5308295340000768
13,579,Equal,0.1,0.1,0.009999999999999995,0,0.5227015030000075
13,580,Control,0.0,0.25,0.012589254117941666,0,0.42196179899974595
13,581,Control_null,0.0,0.25,0.05011872336272722,1,0.3272536980002769
13,582,Increase,0.1,0.25,0.00794328234724281,1,0.4653792610001801
13,583,Control,0.0,0.25,0.015848931924611127,0,0.18054558399990128
13,584,Decrease,0.25,0.1,0.012589254117941666,0,0.2719362699999692
13,585,Control,0.0,0.25,0.01995262314968879,0,0.18679135399997904
13,586,Equal,0.1,0.1,0.012589254117941666,1,0.5491508039999644
13,587,Control,0.0,0.25,0.025118864315095794,1,0.4495107139996435
13,588,Control,0.0,0.25,0.01995262314968879,1,0.4299419509998188
13,589,Control,0.0,0.25,0.015848931924611127,1,0.4256044280000424
13,590,Equal,0.25,0.25,0.009999999999999995,0,0.5311122079997403
13,591,Control,0.0,0.25,0.012589254117941666,0,0.7181261079999786
13,592,Increase,0.1,0.25,0.0063095734448019285,0,0.5823437519998151
13,593,Equal,0.1,0.1,0.009999999999999995,0,0.46539467899992815
13,594,Equal,0.25,0.25,0.012589254117941666,1,0.6669028809997144
13,595,Control,0.0,0.25,0.015848931924611127,1,0.48592930800032264
13,596,Decrease,0.25,0.1,0.015848931924611127,1,0.4079779599996982
13,597,Equal_null,0.1,0.1,0.00794328234724281,1,0.70716987600008
13,598,Increase,0.1,0.25,0.00794328234724281,1,0.4553315590001148
13,599,Increase,0.1,0.25,0.0063095734448019285,0,0.5706611229998089
13,600,Equal,0.25,0.25,0.009999999999999995,0,0.4868209289998049
13,601,Control_null,0.0,0.1,0.009999999999999995,1,0.36279385699981503
13,602,Equal,0.1,0.1,0.012589254117941666,0,0.3420028360001197
13,603,Control,0.0,0.1,0.009999999999999995,0,0.11001477899981182
13,604,Increase,0.1,0.25,0.00794328234724281,0,0.2824854730001789
13,605,Equal,0.25,0.25,0.012589254117941666,0,0.13071982300016316
13,606,Decrease,0.25,0.1,0.012589254117941666,0,0.17358006499989642
13,607,Control,0.0,0.1,0.012589254117941666,0,0.4086151870001231
13,608,Equal,0.25,0.25,0.015848931924611127,1,0.45213909700032673
13,609,Equal_null,0.1,0.1,0.0063095734448019285,1,0.4154145860002245
13,610,Control,0.0,0.1,0.015848931924611127,1,0.410311854000156
13,611,Decrease,0.25,0.1,0.015848931924611127,1,0.4866711099998611
13,612,Decrease,0.25,0.1,0.012589254117941666,1,0.604426739000246
13,613,Increase,0.1,0.25,0.009999999999999995,0,0.4163237369998569
13,614,Decrease_null,0.25,0.1,0.02511886431509579,1,0.5142626810002184
13,615,Equal,0.25,0.25,0.012589254117941666,0,0.34131624000019656
13,616,Equal,0.25,0.25,0.015848931924611127,1,0.5095798510001259
13,617,Increase,0.1,0.25,0.012589254117941666,0,0.4326177030002327
13,618,Increase,0.1,0.25,0.015848931924611127,0,0.35409451300029104
13,619,Equal,0.25,0.25,0.012589254117941666,0,0.4214446979999593
13,620,Control,0.0,0.25,0.012589254117941666,1,0.7123971359997086
13,621,Equal,0.25,0.25,0.015848931924611127,1,0.37140932900001644
13,622,Equal,0.1,0.1,0.015848931924611127,1,0.4466709909997917
13,623,Equal,0.25,0.25,0.012589254117941666,1,0.4495778970003812
13,624,Decrease,0.25,0.1,0.009999999999999995,1,0.44634725600008096
13,625,Equal,0.1,0.1,0.012589254117941666,1,0.46664116400006606
13,626,Control,0.0,0.25,0.009999999999999995,0,0.511772542000017
13,627,Equal,0.25,0.25,0.009999999999999995,0,0.600526863000141
13,628,Equal,0.1,0.1,0.009999999999999995,0,0.45988942199983285
13,629,Decrease,0.25,0.1,0.00794328234724281,1,0.4602246540002852
13,630,Equal,0.1,0.1,0.012589254117941666,1,0.6793349980002859
13,631,Equal,0.1,0.1,0.009999999999999995,1,0.44843790000004446
13,632,Control,0.0,0.1,0.012589254117941666,1,0.4117281579997325
13,633,Decrease,0.25,0.1,0.0063095734448019285,0,0.4386075920001531
13,634,Increase,0.1,0.25,0.01995262314968879,1,0.32227281200039215
13,635,Control_null,0.0,0.1,0.00794328234724281,1,0.44529929200007246
13,636,Control,0.0,0.25,0.012589254117941666,0,99
13,637,Equal_null,0.1,0.1,0.005011872336272719,1,0.48363084400034495
13,638,Control,0.0,0.1,0.009999999999999995,1,0.5853228099999797
13,639,Equal,0.25,0.25,0.012589254117941666,0,0.6339997730001414
13,640,Control,0.0,0.25,0.015848931924611127,1,0.4450105099999746
13,641,Equal,0.25,0.25,0.015848931924611127,1,0.44838106799988964
13,642,Control,0.0,0.1,0.00794328234724281,0,0.5045613180000146
13,643,Increase,0.1,0.25,0.015848931924611127,1,0.32362899700001435
13,644,Control_null,0.0,0.25,0.03981071705534971,1,0.5885974160000842
13,645,Equal,0.25,0.25,0.012589254117941666,0,0.575770145000206
13,646,Control,0.0,0.1,0.009999999999999995,1,0.5071872949997669
13,647,Increase,0.1,0.25,0.012589254117941666,0,1.2308789730000171
13,648,Control,0.0,0.1,0.00794328234724281,0,0.555083041999751
13,649,Equal,0.25,0.25,0.015848931924611127,1,0.46177570300005755
13,650,Control_null,0.0,0.1,0.0063095734448019285,1,0.5942712679998294
13,651,Control,0.0,0.1,0.009999999999999995,1,0.63082416799989
13,652,Equal,0.1,0.1,0.00794328234724281,0,0.5399777600000562
13,653,Increase,0.1,0.25,0.015848931924611127,1,0.42791647000012745
13,654,Equal,0.25,0.25,0.012589254117941666,1,0.4946141689997603
13,655,Equal,0.25,0.25,0.009999999999999995,1,0.7999001020002652
13,656,Control,0.0,0.1,0.00794328234724281,0,0.6352811410001777
13,657,Decrease,0.25,0.1,0.00794328234724281,1,0.5004341260000729
13,658,Decrease,0.25,0.1,0.0063095734448019285,0,0.45539993599959416
13,659,Decrease_null,0.25,0.1,0.01995262314968879,1,0.4023157510000601
13,660,Decrease,0.25,0.1,0.00794328234724281,1,0.5177645120002126
13,661,Increase,0.1,0.25,0.012589254117941666,1,0.4580260049997378
13,662,Increase,0.1,0.25,0.009999999999999995,0,0.5252257069996631
13,663,Increase,0.1,0.25,0.012589254117941666,0,0.49606323099988003
13,664,Decrease,0.25,0.1,0.0063095734448019285,0,0.510345450999921
13,665,Control,0.0,0.25,0.012589254117941666,0,0.49472949999972116
13,666,Control_null,0.0,0.25,0.031622776601683784,1,0.38578345300038563
13,667,Increase,0.1,0.25,0.015848931924611127,0,0.34919921099981366
13,668,Control,0.0,0.1,0.009999999999999995,0,0.5343761620001715
13,669,Control,0.0,0.1,0.012589254117941666,1,0.6655192110001735
13,670,Equal,0.1,0.1,0.009999999999999995,0,0.5389260799997828
13,671,Decrease_null,0.25,0.1,0.015848931924611127,1,0.40549436399987826
13,672,Control,0.0,0.25,0.015848931924611127,1,0.4820503989999452
13,673,Increase,0.1,0.25,0.01995262314968879,1,0.3733761170001344
13,674,Decrease,0.25,0.1,0.00794328234724281,0,0.4565742360000513
13,675,Control_null,0.0,0.1,0.005011872336272719,1,0.38863723299982667
13,676,Control,0.0,0.25,0.012589254117941666,0,0.26410367300013604
13,677,Decrease_null,0.25,0.1,0.012589254117941666,0,0.2909576079996441
13,678,Equal,0.25,0.25,0.00794328234724281,0,0.5639085769998928
13,679,Equal,0.25,0.25,0.009999999999999995,0,0.11242353399984495
13,680,Equal,0.1,0.1,0.012589254117941666,0,0.6356574779997572
13,681,Increase,0.1,0.25,0.015848931924611127,1,0.6037859660000322
13,682,Equal,0.1,0.1,0.015848931924611127,1,0.5190390440002375
13,683,Control,0.0,0.25,0.015848931924611127,1,0.5611384779999753
13,684,Control,0.0,0.25,0.012589254117941666,1,0.6832227260001673
13,685,Equal,0.1,0.1,0.012589254117941666,0,0.45432998299975225
13,686,Control,0.0,0.25,0.009999999999999995,1,0.6267781080000532
13,687,Control,0.0,0.25,0.00794328234724281,1,0.597871590000068
13,688,Control,0.0,0.25,0.0063095734448019285,0,0.4910143950000929
13,689,Equal,0.1,0.1,0.015848931924611127,1,0.46223173699991094
13,690,Control,0.0,0.25,0.00794328234724281,1,0.36154208000016297
13,691,Control_null,0.0,0.25,0.02511886431509579,1,0.5536196149996613
13,692,Equal,0.25,0.25,0.012589254117941666,1,0.3968138199998066
13,693,Increase,0.1,0.25,0.012589254117941666,0,0.42410984599973744
13,694,Control_null,0.0,0.25,0.01995262314968879,1,0.5051845550001417
13,695,Equal,0.25,0.25,0.009999999999999995,0,0.460402809000243
13,696,Control,0.0,0.25,0.0063095734448019285,0,0.40668327900039003
13,697,Equal,0.1,0.1,0.012589254117941666,1,0.4335532729996885
13,698,Decrease,0.25,0.1,0.009999999999999995,1,0.41294398799982446
13,699,Equal,0.25,0.25,0.012589254117941666,1,0.6161303290000433
13,700,Decrease_null,0.25,0.1,0.015848931924611127,1,0.5322433569999703
13,701,Control,0.0,0.1,0.009999999999999995,1,0.6017974060000597
13,702,Control,0.0,0.25,0.00794328234724281,0,0.3546286529999634
13,703,Equal,0.25,0.25,0.009999999999999995,1,0.3896082859996568
13,704,Decrease,0.25,0.1,0.00794328234724281,0,0.5350752790000115
13,705,Control,0.0,0.25,0.009999999999999995,1,0.48218339100003504
13,706,Increase,0.1,0.25,0.015848931924611127,0,0.40529209000033006
13,707,Decrease,0.25,0.1,0.009999999999999995,0,0.41362263400014854
13,708,Decrease_null,0.25,0.1,0.012589254117941666,1,0.3367928389998269
13,709,Equal,0.1,0.1,0.009999999999999995,1,0.6598876739999469
13,710,Decrease,0.25,0.1,0.012589254117941666,1,0.5831926590003604
13,711,Increase,0.1,0.25,0.01995262314968879,1,0.4340423659996304
13,712,Control_null,0.0,0.25,0.015848931924611127,1,0.5256453599999986
13,713,Equal,0.1,0.1,0.00794328234724281,0,0.5552334640001391
13,714,Control,0.0,0.25,0.00794328234724281,0,0.47945686999992176
13,715,Decrease_null,0.25,0.1,0.009999999999999995,1,0.569063905999883
13,716,Control,0.0,0.25,0.009999999999999995,1,0.5482930570001372
13,717,Increase,0.1,0.25,0.015848931924611127,1,0.3164590930000486
13,718,Control,0.0,0.1,0.00794328234724281,0,0.5996882109998296
13,719,Equal,0.25,0.25,0.00794328234724281,0,0.49887363800007734
13,720,Increase,0.1,0.25,0.012589254117941666,0,0.3024961709998024
13,721,Control,0.0,0.1,0.009999999999999995,0,0.39442420200020933
13,722,Equal,0.1,0.1,0.009999999999999995,0,0.15206341500015697
13,723,Control,0.0,0.25,0.00794328234724281,1,0.5540730979996624
13,724,Decrease,0.25,0.1,0.009999999999999995,1,0.5172188550000101
13,725,Equal,0.25,0.25,0.009999999999999995,1,0.5731627780000963
13,726,Control,0.0,0.25,0.0063095734448019285,0,0.48838913300005515
13,727,Decrease,0.25,0.1,0.00794328234724281,0,0.4835610620002626
13,728,Control_null,0.0,0.25,0.012589254117941666,1,0.4361310939998475
13,729,Equal,0.25,0.25,0.00794328234724281,0,0.29612942599987946
13,730,Control_null,0.0,0.25,0.009999999999999995,1,0.24326512600009664
13,731,Equal,0.1,0.1,0.012589254117941666,1,0.47047126000006756
13,732,Equal,0.25,0.25,0.009999999999999995,1,0.4655412460001571
13,733,Decrease,0.25,0.1,0.009999999999999995,0,0.3808254429995941
13,734,Control,0.0,0.25,0.00794328234724281,0,0.44204182200019204
13,735,Increase,0.1,0.25,0.015848931924611127,1,0.414350700000341
13,736,Equal,0.25,0.25,0.00794328234724281,0,99
13,737,Control,0.0,0.1,0.012589254117941666,0,0.19543419199999335
13,738,Control,0.0,0.1,0.015848931924611127,1,0.3716458789999706
13,739,Control,0.0,0.25,0.009999999999999995,0,0.29485780799996064
13,740,Decrease,0.25,0.1,0.012589254117941666,0,0.5221704040000077
13,741,Decrease,0.25,0.1,0.015848931924611127,1,0.26648950299977514
13,742,Control,0.0,0.25,0.012589254117941666,0,99
13,743,Control,0.0,0.1,0.012589254117941666,0,0.28845363599975826
13,744,Equal,0.25,0.25,0.009999999999999995,0,0.6195015210000747
13,745,Control,0.0,0.25,0.015848931924611127,1,0.5200702299998738
13,746,Equal,0.25,0.25,0.012589254117941666,1,0.6354429470002287
13,747,Control,0.0,0.25,0.012589254117941666,0,0.4876373209999656
13,748,Equal,0.25,0.25,0.009999999999999995,0,0.6208658290001949
13,749,Equal,0.25,0.25,0.012589254117941666,1,0.41397947999985263
13,750,Increase,0.1,0.25,0.012589254117941666,1,0.5689476010002181
13,751,Equal,0.25,0.25,0.009999999999999995,1,0.5621269170001142
13,752,Equal,0.25,0.25,0.00794328234724281,1,0.3972554680003668
13,753,Equal,0.1,0.1,0.009999999999999995,1,0.40874494199988476
13,754,Control_null,0.0,0.25,0.00794328234724281,1,0.5045625950001522
13,755,Control,0.0,0.1,0.015848931924611127,1,0.3639633759999015
13,756,Decrease,0.25,0.1,0.012589254117941666,0,0.44704969499980507
13,757,Decrease_null,0.25,0.1,0.00794328234724281,1,0.4832557300001099
13,758,Decrease,0.25,0.1,0.015848931924611127,1,0.33454880899989803
13,759,Equal,0.1,0.1,0.00794328234724281,0,0.4096947719999662
13,760,Decrease,0.25,0.1,0.012589254117941666,1,0.5103996189995996
13,761,Equal,0.1,0.1,0.009999999999999995,1,0.41954716899999767
13,762,Increase,0.1,0.25,0.009999999999999995,1,0.5164413000002241
13,763,Increase,0.1,0.25,0.00794328234724281,1,0.5432782730003964
13,764,Equal,0.1,0.1,0.00794328234724281,0,0.4076493340003253
13,765,Control,0.0,0.1,0.012589254117941666,0,0.37989766900000177
13,766,Increase,0.1,0.25,0.0063095734448019285,0,0.4470170509998752
13,767,Decrease,0.25,0.1,0.009999999999999995,1,0.5513576409998677
13,768,Control,0.0,0.25,0.015848931924611127,1,0.459293579000132
13,769,Increase,0.1,0.25,0.00794328234724281,0,0.4304653990002407
13,770,Decrease,0.25,0.1,0.00794328234724281,0,0.44173938800031465
13,771,Increase,0.1,0.25,0.009999999999999995,1,0.5571797200000219
13,772,Equal,0.1,0.1,0.009999999999999995,1,0.4802378259996658
13,773,Control,0.0,0.1,0.015848931924611127,1,0.3328919670002506
13,774,Control,0.0,0.25,0.012589254117941666,0,0.5137609140001587
13,775,Increase,0.1,0.25,0.00794328234724281,1,0.6097343139999793
13,776,Equal,0.1,0.1,0.00794328234724281,0,0.4529666889998225
13,777,Equal,0.1,0.1,0.009999999999999995,0,0.43802862599977743
13,778,Increase,0.1,0.25,0.0063095734448019285,0,0.44116927599998235
13,779,Control,0.0,0.1,0.012589254117941666,1,0.7720941349998611
13,780,Decrease,0.25,0.1,0.009999999999999995,0,0.43736191000016333
13,781,Control,0.0,0.1,0.009999999999999995,1,0.424706328999946
13,782,Control,0.0,0.1,0.00794328234724281,0,0.4356274299998404
13,783,Control,0.0,0.1,0.009999999999999995,1,0.5433474659998865
13,784,Control,0.0,0.1,0.00794328234724281,0,0.5622836749998896
13,785,Equal,0.1,0.1,0.012589254117941666,0,0.541305425000246
13,786,Increase,0.1,0.25,0.00794328234724281,1,0.5383827130003738
13,787,Control,0.0,0.25,0.015848931924611127,1,0.5512735710003653
13,788,Increase,0.1,0.25,0.0063095734448019285,0,0.29519450299994787
13,789,Decrease,0.25,0.1,0.012589254117941666,0,0.5461597830003484
13,790,Increase,0.1,0.25,0.00794328234724281,0,0.4103736939996452
13,791,Control,0.0,0.25,0.012589254117941666,0,0.34963423800036253
13,792,Equal,0.1,0.1,0.015848931924611127,1,0.5346502689999397
13,793,Control,0.0,0.1,0.009999999999999995,0,0.40996492999965994
13,794,Equal,0.1,0.1,0.012589254117941666,0,0.16524919899984525
13,795,Control,0.0,0.1,0.012589254117941666,1,0.5453604570002426
13,796,Decrease,0.25,0.1,0.015848931924611127,1,0.5485292849998586
13,797,Increase,0.1,0.25,0.009999999999999995,1,0.6398497759996644
13,798,Equal,0.1,0.1,0.015848931924611127,1,0.49096805400040466
13,799,Increase,0.1,0.25,0.00794328234724281,0,0.479845037999894
13,800,Increase,0.1,0.25,0.009999999999999995,0,0.426049864000106
13,801,Control,0.0,0.1,0.009999999999999995,1,0.5155470119998427
13,802,Decrease,0.25,0.1,0.012589254117941666,0,0.5985874970001532
13,803,Control,0.0,0.1,0.00794328234724281,0,0.48794509100025607
13,804,Decrease,0.25,0.1,0.015848931924611127,1,0.4991671729999325
13,805,Decrease,0.25,0.1,0.012589254117941666,1,0.4044743069998731
13,806,Increase,0.1,0.25,0.012589254117941666,0,0.7033157280002342
13,807,Decrease,0.25,0.1,0.009999999999999995,0,0.6022755250000955
13,808,Equal,0.1,0.1,0.012589254117941666,1,0.5337123620001876
13,809,Control,0.0,0.1,0.009999999999999995,0,0.43398645200022656
13,810,Equal,0.1,0.1,0.009999999999999995,0,0.5021575020000455
13,811,Decrease,0.25,0.1,0.012589254117941666,0,0.48942596400002003
13,812,Equal,0.1,0.1,0.012589254117941666,0,0.5876618379998035
13,813,Equal,0.1,0.1,0.015848931924611127,1,0.5517349389997435
13,814,Equal,0.1,0.1,0.012589254117941666,0,0.6328801370000292
13,815,Control,0.0,0.1,0.012589254117941666,0,0.42810433099975853
13,816,Control,0.0,0.1,0.015848931924611127,1,0.47635907499989116
13,817,Equal,0.1,0.1,0.015848931924611127,1,0.47948284499989313
13,818,Equal,0.1,0.1,0.012589254117941666,1,1.0086268129998643
13,819,Control,0.0,0.1,0.012589254117941666,0,0.49194385600003443
13,820,Control,0.0,0.1,0.015848931924611127,1,0.7759441809998862
13,821,Decrease,0.25,0.1,0.015848931924611127,1,0.5952523789997031
13,822,Control,0.0,0.1,0.012589254117941666,1,0.5905001549999724
13,823,Equal,0.1,0.1,0.009999999999999995,1,0.4908567210000001
13,824,Control,0.0,0.1,0.009999999999999995,0,0.7657524320002267
13,825,Control,0.0,0.1,0.012589254117941666,0,0.5360556689997793
13,826,Equal,0.1,0.1,0.00794328234724281,0,0.43617292699991594
13,827,Equal,0.1,0.1,0.009999999999999995,0,0.397171599000103
13,828,Decrease,0.25,0.1,0.012589254117941666,0,0.3284319230001529
13,829,Equal,0.1,0.1,0.012589254117941666,0,0.3607205719999911
13,830,Decrease,0.25,0.1,0.015848931924611127,1,0.44404692399984924
13,831,Decrease,0.25,0.1,0.012589254117941666,0,0.4859325910001644
13,832,Decrease,0.25,0.1,0.015848931924611127,1,0.44901856100022997
13,833,Decrease,0.25,0.1,0.012589254117941666,0,0.37238273100001607
13,834,Decrease,0.25,0.1,0.015848931924611127,1,0.3038955189999797
13,835,Decrease,0.25,0.1,0.012589254117941666,0,0.4748725849999573
13,836,Decrease,0.25,0.1,0.015848931924611127,0,0.5282279670000207
13,837,Decrease,0.25,0.1,0.01995262314968879,1,0.4032731600000261
13,838,Decrease,0.25,0.1,0.015848931924611127,1,0.3804336250000233
13,839,Decrease,0.25,0.1,0.012589254117941666,1,0.4805755079996743
